"Time (s)","Gyroscope x (rad/s)","Gyroscope y (rad/s)","Gyroscope z (rad/s)"
2.654314870E-1,1.410335153E-1,-1.001971722E0,-1.628719419E-1
2.754314870E-1,1.489747614E-1,-9.848675132E-1,-1.659262776E-1
2.854314870E-1,1.575268805E-1,-9.738719463E-1,-1.744783819E-1
2.954314870E-1,1.550834179E-1,-9.384417534E-1,-1.915826052E-1
3.054317370E-1,1.184315011E-1,-8.639161587E-1,-2.270127982E-1
3.154319370E-1,5.001459271E-2,-7.619016767E-1,-2.734385431E-1
3.254319370E-1,-3.367394581E-2,-6.269004345E-1,-3.131448030E-1
3.354319370E-1,-1.051451787E-1,-4.778493345E-1,-3.339142203E-1
3.454319370E-1,-1.332449764E-1,-3.349068761E-1,-3.418554664E-1
3.554319370E-1,-1.222494096E-1,-2.121229619E-1,-3.314707577E-1
3.654319370E-1,-1.191950813E-1,-9.972374886E-2,-2.905427814E-1
3.754308460E-1,-1.546252668E-1,-3.817907767E-3,-2.325105816E-1
3.854308460E-1,-2.010510266E-1,4.932736978E-2,-1.769218445E-1
3.954308460E-1,-2.028836161E-1,2.977968007E-2,-1.372155994E-1
4.054308460E-1,-1.246928647E-1,-5.879577994E-2,-8.651378751E-2
4.154308460E-1,1.580613852E-2,-1.748601794E-1,1.916589774E-2
4.254308460E-1,1.446987092E-1,-2.707660198E-1,1.639409661E-1
4.354308460E-1,2.051743716E-1,-3.465133011E-1,2.995530367E-1
4.454308460E-1,2.204459906E-1,-4.326453209E-1,4.241695404E-1
4.554308460E-1,2.821433842E-1,-6.495024562E-1,6.025422215E-1
4.654308460E-1,3.811035454E-1,-1.089936256E0,8.420013785E-1
4.754308460E-1,4.537965059E-1,-1.852907062E0,1.127886295E0
4.891551530E-1,3.731622994E-1,-3.048981190E0,1.407051682E0
4.991551960E-1,-1.290452853E-2,-4.612796307E0,1.584813476E0
5.091551960E-1,-7.044039965E-1,-6.061157703E0,1.641623974E0
5.191551960E-1,-1.406898975E0,-6.841232777E0,1.675832391E0
5.291551960E-1,-1.705612063E0,-6.558402061E0,1.663615108E0
5.391551960E-1,-1.621923566E0,-4.884020329E0,1.600695968E0
5.491551960E-1,-1.679955840E0,-2.553569555E0,1.628184915E0
5.591552300E-1,-1.960953832E0,-6.910412908E-1,1.639791369E0
5.691552300E-1,-2.227291107E0,4.060726762E-1,1.524948716E0
5.791552300E-1,-2.391613722E0,8.611672521E-1,1.336802244E0
5.891552300E-1,-2.413604975E0,6.827946305E-1,1.176755548E0
5.991552300E-1,-2.277381897E0,1.201877370E-1,1.068632364E0
6.091551960E-1,-1.953012586E0,-5.621487498E-1,1.011821866E0
6.191551620E-1,-1.491198421E0,-1.082605958E0,1.059469461E0
6.291551620E-1,-9.670760632E-1,-1.422247052E0,1.135827541E0
6.391551620E-1,-4.637230933E-1,-1.608560920E0,1.124832034E0
6.491551620E-1,-1.741729528E-1,-1.597565293E0,1.076573610E0
6.591551620E-1,-1.595121920E-1,-1.336725831E0,1.031980515E0
6.691551620E-1,-3.189480305E-1,-9.042332768E-1,9.385181069E-1
6.791555620E-1,-4.887685478E-1,-4.387539625E-1,7.656432390E-1
6.891555620E-1,-5.700136423E-1,-5.879577994E-2,6.147595048E-1
6.991555620E-1,-5.803983212E-1,1.580613852E-1,5.408447981E-1
7.091555620E-1,-5.535202622E-1,2.295326144E-1,5.237405896E-1
7.191555620E-1,-5.590180755E-1,2.808452845E-1,5.151884556E-1
7.291555620E-1,-5.846744180E-1,3.480404615E-1,5.103015304E-1
7.391555620E-1,-5.865070224E-1,3.956879675E-1,4.986951053E-1
7.491555620E-1,-5.675701499E-1,4.647157490E-1,4.620431960E-1
7.591555620E-1,-5.394703746E-1,5.416847467E-1,4.150065780E-1
7.691555620E-1,-4.783838391E-1,5.752823353E-1,3.392592967E-1
7.791555620E-1,-3.910301030E-1,5.978843570E-1,2.378556579E-1
7.891555620E-1,-2.719113827E-1,5.972734690E-1,1.242347211E-1
7.991555280E-1,-1.149190217E-1,5.636758804E-1,6.337726954E-3
8.091555610E-1,7.322747260E-2,4.848742783E-1,-1.140027270E-1
8.191555610E-1,2.607631087E-1,3.969096839E-1,-2.502256632E-1
8.291555610E-1,4.342488348E-1,2.991712391E-1,-3.827834427E-1
8.391555610E-1,5.820782185E-1,2.167044431E-1,-5.086216927E-1
8.491555610E-1,6.999751925E-1,1.666134894E-1,-6.204100251E-1
8.591555270E-1,7.971028090E-1,1.073595658E-1,-7.181484699E-1
8.691555270E-1,8.795695901E-1,1.389718428E-2,-8.055021763E-1
8.791555270E-1,9.565386176E-1,-1.204931661E-1,-8.794168830E-1
8.891555270E-1,1.043281436E0,-2.671008408E-1,-9.380599260E-1
8.991555270E-1,1.148350358E0,-3.636175394E-1,-9.563859105E-1
9.091555270E-1,1.254029989E0,-3.678936064E-1,-9.362273216E-1
9.191555270E-1,1.321835995E0,-2.695443034E-1,-8.812494874E-1
9.291555270E-1,1.315727353E0,-1.803579628E-1,-8.006152511E-1
9.391555270E-1,1.223486781E0,-1.107193232E-1,-6.906595230E-1
9.491555270E-1,1.070770383E0,-7.162395120E-2,-5.501605272E-1
9.591555270E-1,9.204975367E-1,-6.123924255E-2,-3.876703680E-1
9.691555270E-1,8.313112259E-1,-1.339322031E-1,-2.441170216E-1
9.791555270E-1,7.769442201E-1,-1.237002108E-2,-2.209041417E-1
9.891555270E-1,6.779840589E-1,2.038762718E-1,-2.764928937E-1
9.991555270E-1,4.666246772E-1,1.721112877E-1,-3.583488166E-1
1.009155527E0,3.694971204E-1,-8.261952549E-2,-3.607922792E-1
1.019155527E0,4.165337384E-1,-3.856086731E-1,-3.644574881E-1
1.029155527E0,5.875760317E-1,-5.035057068E-1,-4.139375687E-1
1.039155527E0,7.897723913E-1,-3.397938013E-1,-4.841870666E-1
1.049155527E0,9.101128578E-1,-8.017606288E-2,-4.603633285E-1
1.059155527E0,9.681450725E-1,-1.542434748E-2,-3.717878461E-1
1.069155527E0,9.369909167E-1,-4.344778955E-1,-2.545017302E-1
1.079155527E0,7.683921456E-1,-6.940956116E-1,-1.140027270E-1
1.089155527E0,6.419430375E-1,7.437284291E-2,-1.421025246E-1
1.099155527E0,4.287510514E-1,8.013024926E-1,-2.618321180E-1
1.109155493E0,1.734093726E-1,9.564622641E-1,-3.840051591E-1
1.119155493E0,4.818199575E-2,7.951938510E-1,-5.776494741E-1
1.129155493E0,6.284276396E-2,3.498730659E-1,-7.034876943E-1
1.139155493E0,1.428661048E-1,-2.658790946E-1,-6.619488597E-1
1.149155493E0,2.125047445E-1,-9.152288437E-1,-4.347069860E-1
1.159155493E0,1.782962978E-1,-1.334282398E0,-2.648864388E-1
1.169155493E0,3.535382450E-2,-1.334893227E0,-4.188244939E-1
1.179155493E0,-1.931097806E-1,-1.058782220E0,-7.004333735E-1
1.189155493E0,-4.576144218E-1,-5.163338780E-1,-9.148470759E-1
1.199155493E0,-6.475934982E-1,4.005748928E-1,-1.090165377E0
1.209155493E0,-6.298784018E-1,1.666287661E0,-1.104826212E0
1.219155493E0,-4.191299081E-1,2.822655678E0,-9.295078516E-1
1.229155493E0,-4.711298272E-2,3.577074051E0,-7.242571115E-1
1.239155493E0,5.875760317E-1,3.641215086E0,-6.039166451E-1
1.249155493E0,1.354211926E0,2.712699890E0,-5.147303343E-1
1.259155493E0,1.831297636E0,9.326385260E-1,-3.284164369E-1
1.269154993E0,1.732337475E0,-8.321511745E-1,-6.940956414E-2
1.279154993E0,1.294347048E0,-2.058157682E0,9.185886383E-2
1.289154993E0,8.636870980E-1,-2.793639421E0,2.012037337E-1
1.299154993E0,6.584363580E-1,-3.245068789E0,2.812270820E-1
1.309155026E0,6.590472460E-1,-3.398396015E0,2.470186353E-1
1.319155059E0,7.610617280E-1,-3.206584454E0,1.596648991E-1
1.329155059E0,8.838456273E-1,-2.752711535E0,1.169043332E-1
1.339155059E0,9.620364308E-1,-2.164448261E0,1.260673106E-1
1.349155059E0,9.516516924E-1,-1.598787069E0,1.407280862E-1
1.359155059E0,8.355873227E-1,-1.172403097E0,1.059087589E-1
1.369155059E0,6.504951119E-1,-9.292787313E-1,2.832887508E-2
1.379155059E0,4.464661479E-1,-8.132143617E-1,-7.490734756E-2
1.389155059E0,2.662608922E-1,-7.228062749E-1,-1.640936732E-1
1.399155059E0,1.343140006E-1,-6.189591885E-1,-2.092977017E-1
1.409155059E0,5.490151420E-2,-5.322163701E-1,-2.325105816E-1
1.419155059E0,4.199698567E-3,-4.644103050E-1,-2.465604842E-1
1.429155059E0,-3.550654277E-2,-4.094324410E-1,-2.453387529E-1
1.439155059E0,-5.383250117E-2,-3.880521357E-1,-2.490039468E-1
1.449155059E0,-5.199990422E-2,-3.923282027E-1,-2.630538344E-1
1.459155059E0,-4.528038576E-2,-4.027129114E-1,-2.740494311E-1
1.469155059E0,-4.161519557E-2,-4.118759036E-1,-2.880993187E-1
1.479155059E0,-3.550654277E-2,-4.314235747E-1,-2.935971022E-1
1.489155059E0,-2.634356357E-2,-4.631885588E-1,-2.874884605E-1
1.499155092E0,-2.084577642E-2,-4.912883639E-1,-2.880993187E-1
1.509155092E0,-1.718058437E-2,-5.175555944E-1,-2.954297066E-1
1.519155092E0,-2.084577642E-2,-5.316054821E-1,-3.070361316E-1
1.529155092E0,-3.611740842E-2,-5.138903856E-1,-3.216969073E-1
1.539155092E0,-5.810855702E-2,-4.625777006E-1,-3.369685411E-1
1.549155092E0,-6.788240373E-2,-4.075998366E-1,-3.479641080E-1
1.559155125E0,-4.711298272E-2,-3.623957932E-1,-3.473532498E-1
1.569155625E0,5.345070967E-4,-3.379611969E-1,-3.314707577E-1
1.579155625E0,3.779728711E-2,-3.269656301E-1,-3.094795942E-1
1.589155625E0,3.168863431E-2,-3.068070710E-1,-2.832123935E-1
1.599155625E0,-1.901318133E-2,-2.438879460E-1,-2.453387529E-1
1.609155591E0,-5.871942267E-2,-1.504255682E-1,-2.105194330E-1
1.619155557E0,-3.733913973E-2,-6.062837690E-2,-1.866956949E-1
1.629155557E0,7.750352472E-2,-3.863722831E-2,-1.622610837E-1
1.639155557E0,2.534327209E-1,-9.117163718E-2,-1.146135926E-1
1.649155557E0,4.140902758E-1,-1.443169117E-1,2.588541433E-2
1.659155557E0,4.812854528E-1,-2.176207453E-1,2.476294935E-1
1.669155557E0,4.971679449E-1,-3.959933817E-1,4.803691506E-1
1.679155557E0,5.387067795E-1,-8.535314798E-1,7.369325757E-1
1.689155557E0,5.478697419E-1,-1.690416813E0,1.025260925E0
1.699155557E0,3.914882541E-1,-3.000722885E0,1.330693603E0
1.709155557E0,-5.138903856E-2,-4.697095394E0,1.625130653E0
1.719155557E0,-7.514405847E-1,-6.095366001E0,1.840155244E0
1.729155557E0,-1.367192745E0,-6.631094933E0,1.910404682E0
1.739155557E0,-1.508302689E0,-6.001903534E0,1.827327013E0
1.749155557E0,-1.331151724E0,-4.093560696E0,1.710651755E0
1.759155557E0,-1.470428944E0,-1.961030126E0,1.708208323E0
1.769155557E0,-1.853441477E0,-3.715587854E-1,1.662393451E0
1.779155557E0,-2.105728865E0,6.174320579E-1,1.504179358E0
1.789155557E0,-2.157041550E0,1.085354805E0,1.322141409E0
1.799155523E0,-2.045253277E0,9.711230397E-1,1.143768787E0
1.809155556E0,-1.796020150E0,2.942843437E-1,9.470701814E-1
1.819155556E0,-1.434998870E0,-5.761986375E-1,7.693084478E-1
1.829155556E0,-1.012280107E0,-1.210276723E0,7.454846501E-1
1.839155556E0,-5.156466365E-1,-1.565800309E0,8.755989671E-1
1.849155556E0,-5.871942267E-2,-1.707521081E0,9.941068292E-1
1.859155522E0,2.008983046E-1,-1.669647455E0,9.550114274E-1
1.869155522E0,1.422552466E-1,-1.425912142E0,8.823184967E-1
1.879155522E0,-8.559749275E-2,-1.035569310E0,8.084037900E-1
1.889155522E0,-3.165045679E-1,-4.949535728E-1,6.831763983E-1
1.899155522E0,-4.246276915E-1,-2.275473066E-2,5.567272902E-1
1.909155522E0,-4.289037585E-1,2.606867552E-1,5.255731940E-1
1.919155522E0,-3.745367527E-1,3.132211566E-1,5.829945207E-1
1.929155522E0,-3.751476109E-1,3.724750876E-1,6.294202805E-1
1.939155522E0,-4.496731758E-1,5.080871582E-1,6.477462053E-1
1.949155522E0,-5.180900693E-1,6.296493411E-1,6.251442432E-1
1.959155522E0,-5.700136423E-1,7.438811660E-1,5.732206702E-1
1.969155522E0,-5.810092092E-1,8.306240439E-1,4.840343595E-1
1.979155522E0,-5.486333370E-1,9.002626538E-1,3.826307058E-1
1.989155522E0,-4.838816226E-1,9.589056969E-1,2.848922908E-1
1.999155522E0,-3.720932901E-1,9.381362796E-1,1.963168234E-1
2.009155522E0,-2.279291004E-1,8.294022679E-1,1.138500124E-1
2.019155522E0,-8.743008971E-2,7.023423314E-1,4.726569727E-2
2.029155522E0,6.039930135E-2,5.288565755E-1,2.672535367E-3
2.039155522E0,2.173916698E-1,3.730859458E-1,-7.246389240E-2
2.049155522E0,3.823252916E-1,2.270891517E-1,-1.573741585E-1
2.059155555E0,5.484806299E-1,8.170322329E-2,-2.435061634E-1
2.069155555E0,7.048621178E-1,-6.429356337E-2,-3.278055489E-1
2.079155555E0,8.435285687E-1,-1.650863290E-1,-4.053854346E-1
2.089155555E0,9.540951252E-1,-2.054034323E-1,-4.731914997E-1
2.099155555E0,1.030453324E0,-1.895209402E-1,-5.293911099E-1
2.109155521E0,1.083598614E0,-1.595885456E-1,-5.813146234E-1
2.119155521E0,1.114141822E0,-9.361509979E-2,-6.289620996E-1
2.129155521E0,1.106200576E0,3.894266114E-2,-6.656140685E-1
2.139155521E0,1.042670608E0,2.069306076E-1,-6.937138438E-1
2.149155521E0,9.119454622E-1,3.437644243E-1,-6.931029558E-1
2.159155521E0,7.567856908E-1,4.262312353E-1,-6.533967257E-1
2.169155521E0,6.327800155E-1,4.506658316E-1,-5.776494741E-1
2.179155521E0,5.753586888E-1,3.859141171E-1,-4.640285075E-1
2.189155521E0,5.881868601E-1,2.722931802E-1,-3.827834427E-1
2.199155521E0,5.912411809E-1,2.203696370E-1,-3.601814210E-1
2.209155521E0,5.466480255E-1,2.374738604E-1,-3.528510332E-1
2.219155521E0,4.880049825E-1,2.331978083E-1,-3.223077655E-1
2.229155521E0,4.391357601E-1,1.415680200E-1,-2.728276849E-1
2.239155521E0,4.366922975E-1,-4.428773187E-3,-2.490039468E-1
2.249155521E0,4.684572816E-1,-1.699732542E-1,-2.960405648E-1
2.259155521E0,5.173265338E-1,-3.636175394E-1,-4.261548519E-1
2.269155521E0,5.399284959E-1,-5.303837657E-1,-4.982369542E-1
2.279155521E0,5.558109879E-1,-4.546364546E-1,-4.469242990E-1
2.289155521E0,6.419430375E-1,-9.422596544E-2,-4.188244939E-1
2.299155521E0,7.335727811E-1,4.482223690E-1,-4.340961277E-1
2.309155554E0,6.718754172E-1,1.042594314E0,-4.206570685E-1
2.319155554E0,4.556291103E-1,1.376126647E0,-4.389830232E-1
2.329155554E0,2.222785950E-1,1.322981358E0,-5.049564838E-1
2.339155554E0,7.811439037E-2,9.937250614E-1,-5.874232650E-1
2.349155554E0,6.406449527E-2,5.545129180E-1,-6.033058167E-1
2.359155520E0,1.624137908E-1,6.887505949E-2,-4.902957082E-1
2.369155520E0,3.010801971E-1,-4.497495294E-1,-2.697733641E-1
2.379155520E0,3.731622994E-1,-8.755226135E-1,-1.530981064E-1
2.389155520E0,2.796999216E-1,-1.072221279E0,-2.954297066E-1
2.399155520E0,1.214094646E-2,-1.089325428E0,-5.361106396E-1
2.409155520E0,-3.507130146E-1,-9.763153791E-1,-8.189412355E-1
2.419155520E0,-6.860780120E-1,-5.920811296E-1,-1.059011221E0
2.429155320E0,-8.149706125E-1,3.003929853E-1,-1.121319532E0
2.439155320E0,-6.121633053E-1,1.594816446E0,-9.197340012E-1
2.449155320E0,-1.320232451E-1,2.786614418E0,-6.295729876E-1
2.459155320E0,4.965570867E-1,3.509268045E0,-4.279874563E-1
2.469155320E0,1.147739410E0,3.460398912E0,-3.577379584E-1
2.479155320E0,1.610164404E0,2.522109985E0,-2.990948856E-1
2.489155320E0,1.679803014E0,9.216429591E-1,-1.970804036E-1
2.499155320E0,1.329777241E0,-6.238461137E-1,-7.124216110E-2
2.509155320E0,8.172613382E-1,-1.687362552E0,3.993531689E-2
2.519155320E0,4.458552599E-1,-2.337323189E0,1.492801905E-1
2.529155320E0,3.646101952E-1,-2.769204855E0,2.067015320E-1
2.539155320E0,4.861723781E-1,-2.956740618E0,1.688278764E-1
2.549155320E0,6.602689624E-1,-2.822350264E0,1.248455867E-1
2.559155353E0,7.708355784E-1,-2.428342104E0,1.217912585E-1
2.569155353E0,7.879397869E-1,-1.921934724E0,1.175151989E-1
2.579155353E0,7.409031987E-1,-1.428355694E0,7.780896127E-2
2.589155353E0,6.633232832E-1,-1.023962855E0,1.366810966E-2
2.599155353E0,5.765804052E-1,-7.710646391E-1,-4.802928120E-2
2.609155319E0,4.904484451E-1,-6.299547553E-1,-9.323330969E-2
2.619155319E0,4.147011340E-1,-5.658139586E-1,-1.225548387E-1
2.629155319E0,3.499494195E-1,-5.432119370E-1,-1.402699351E-1
2.639155319E0,3.090214431E-1,-5.597052574E-1,-1.555415690E-1
2.649155319E0,2.821433842E-1,-6.036875844E-1,-1.634828150E-1
2.659155319E0,2.546544373E-1,-6.647741199E-1,-1.860848218E-1
2.669155319E0,2.283872366E-1,-7.118107080E-1,-2.129628956E-1
2.679155319E0,2.082286924E-1,-7.386888266E-1,-2.398409694E-1
2.689155319E0,1.966222525E-1,-7.490735054E-1,-2.593886554E-1
2.699155319E0,1.856266707E-1,-7.276932001E-1,-2.654972970E-1
2.709155319E0,1.831832081E-1,-6.916521788E-1,-2.667190433E-1
2.719155319E0,1.880701333E-1,-6.501133442E-1,-2.703842223E-1
2.729155519E0,1.880701333E-1,-6.140722632E-1,-2.887101769E-1
2.739155519E0,1.697441787E-1,-5.780312419E-1,-3.198643029E-1
2.749155519E0,1.275944710E-1,-5.267185569E-1,-3.528510332E-1
2.759155519E0,7.933612168E-2,-4.576907754E-1,-3.742313087E-1
2.769155519E0,5.429064855E-2,-3.862195611E-1,-3.797291219E-1
2.779155519E0,7.139487565E-2,-3.239113092E-1,-3.632357419E-1
2.789155519E0,1.165989041E-1,-2.732094824E-1,-3.253620863E-1
2.799155519E0,1.465312988E-1,-2.377792895E-1,-2.752711475E-1
2.809155552E0,1.355357319E-1,-2.096794993E-1,-2.264019251E-1
2.819155552E0,9.338602424E-2,-1.882992089E-1,-1.873065531E-1
2.829155552E0,5.306891724E-2,-1.809688359E-1,-1.592067480E-1
2.839155552E0,4.207334295E-2,-1.864666194E-1,-1.378264725E-1
2.849155552E0,7.567093521E-2,-2.127338201E-1,-1.023962870E-1
2.859155518E0,1.666898578E-1,-2.793181241E-1,-5.108360574E-2
2.869155518E0,2.986367345E-1,-3.843869567E-1,4.482223839E-2
2.879155518E0,4.055381715E-1,-5.065600276E-1,1.902081668E-1
2.889155518E0,4.256967306E-1,-6.849326491E-1,3.490331173E-1
2.899155518E0,3.548363447E-1,-1.014189005E0,5.139667392E-1
2.909155518E0,2.540435791E-1,-1.656819224E0,7.137196660E-1
2.919155518E0,8.788824081E-2,-2.689181566E0,9.495136738E-1
2.929155518E0,-2.438115925E-1,-3.895640373E0,1.207909703E0
2.939155518E0,-7.105126381E-1,-4.869970322E0,1.422934175E0
2.949155518E0,-1.121624947E0,-5.340947628E0,1.531057358E0
2.959155518E0,-1.356197238E0,-5.169905186E0,1.541442037E0
2.969155518E0,-1.466152906E0,-4.161977768E0,1.545107245E0
2.979155518E0,-1.643914700E0,-2.509587049E0,1.579926610E0
2.989155518E0,-2.016542435E0,-7.906123400E-1,1.597641706E0
2.999155551E0,-2.351907492E0,5.282457471E-1,1.528003097E0
3.009155551E0,-2.464917660E0,1.315651059E0,1.377119303E0
3.019155551E0,-2.407496214E0,1.610698938E0,1.210963964E0
3.029155551E0,-2.238286734E0,1.429271936E0,1.015487075E0
3.039155551E0,-1.984777570E0,7.933612466E-1,7.980191112E-1
3.049155551E0,-1.646969080E0,-2.060143054E-1,6.104834676E-1
3.059155584E0,-1.215698242E0,-1.262811184E0,5.842162371E-1
3.069155584E0,-6.860780120E-1,-1.940871596E0,8.084037900E-1
3.079155584E0,-9.109527618E-2,-2.070374966E0,1.044197798E0
3.089155584E0,3.377321362E-1,-1.908495784E0,1.050306439E0
3.099155584E0,3.804926872E-1,-1.612226129E0,9.794460535E-1
3.109155550E0,1.367574632E-1,-1.163240194E0,9.220247269E-1
3.119155550E0,-1.692860276E-1,-6.391177773E-1,8.212319613E-1
3.129155550E0,-3.830888569E-1,-1.382082552E-1,6.898959279E-1
3.139155550E0,-4.417319298E-1,1.873829067E-1,6.147595048E-1
3.149155550E0,-3.830888569E-1,3.480404615E-1,6.214790344E-1
3.159155550E0,-3.531564772E-1,5.367978215E-1,6.556875110E-1
3.169155550E0,-3.543781936E-1,6.766859889E-1,6.666830778E-1
3.179155550E0,-3.849214613E-1,7.878634334E-1,6.508005857E-1
3.189155550E0,-4.289037585E-1,8.703302741E-1,6.172029972E-1
3.199155550E0,-4.606687427E-1,9.277516007E-1,5.396230817E-1
3.209155550E0,-4.692208767E-1,9.796751142E-1,4.272238910E-1
3.219155550E0,-4.508949220E-1,9.949467778E-1,3.282637000E-1
3.229155550E0,-4.154647291E-1,9.424123764E-1,2.439643145E-1
3.239155550E0,-3.501021564E-1,8.165740967E-1,1.957059503E-1
3.249155550E0,-2.419789881E-1,6.809620261E-1,1.621083617E-1
3.259155550E0,-1.033125818E-1,5.587889552E-1,1.382846236E-1
3.269155550E0,4.268420860E-2,4.659374654E-1,6.986771524E-2
3.279155550E0,2.149482071E-1,3.077233732E-1,-4.192062840E-2
3.289155550E0,4.092033505E-1,9.819658846E-2,-1.775327176E-1
3.299155516E0,5.845217109E-1,-8.628471941E-2,-3.174208403E-1
3.309155549E0,7.042512894E-1,-1.931861341E-1,-4.530329406E-1
3.319155549E0,7.745007873E-1,-2.353358418E-1,-5.819255114E-1
3.329155549E0,8.129853010E-1,-2.426662147E-1,-6.949355602E-1
3.339155549E0,8.478046060E-1,-2.304489166E-1,-7.871762514E-1
3.349155549E0,8.850674033E-1,-1.907426715E-1,-8.464301825E-1
3.359155515E0,9.266062379E-1,-9.483683109E-2,-8.623126745E-1
3.369155515E0,9.583712220E-1,6.643159688E-2,-8.305476308E-1
3.379155515E0,9.467647672E-1,2.637410760E-1,-7.694611549E-1
3.389155515E0,8.630762100E-1,4.415028691E-1,-6.979898810E-1
3.399155515E0,7.329619527E-1,5.190827250E-1,-6.075818539E-1
3.409155515E0,6.333909035E-1,4.622722864E-1,-5.025130510E-1
3.419155515E0,5.979607105E-1,3.236058652E-1,-3.675118089E-1
3.429155515E0,6.437755823E-1,2.069306076E-1,-2.832123935E-1
3.439155515E0,6.938665509E-1,1.769981980E-1,-2.893210649E-1
3.449155515E0,6.785949469E-1,1.629483104E-1,-3.064252734E-1
3.459155515E0,6.285039783E-1,7.131851465E-2,-3.021492362E-1
3.469155515E0,5.747478604E-1,-1.394299865E-1,-2.783254683E-1
3.479155515E0,5.539784431E-1,-4.192062616E-1,-2.520582676E-1
3.489155515E0,5.778021812E-1,-6.959282160E-1,-2.813797891E-1
3.499155515E0,6.303365827E-1,-9.152288437E-1,-3.950007260E-1
3.509155515E0,7.128033638E-1,-1.047175765E0,-4.994587004E-1
3.519155548E0,8.288677931E-1,-9.146180153E-1,-4.493677318E-1
3.529155548E0,9.223301411E-1,-3.746131063E-1,-2.880993187E-1
3.539155548E0,9.950231314E-1,4.708243906E-1,-2.764928937E-1
3.549155548E0,9.229410291E-1,1.206306100E0,-3.271946907E-1
3.559155581E0,6.498842835E-1,1.614364147E0,-3.614031374E-1
3.569155581E0,3.249039650E-1,1.549001575E0,-4.200462103E-1
3.579155581E0,1.349248588E-1,1.059698462E0,-5.098434091E-1
3.589155581E0,1.251510233E-1,3.022255898E-1,-5.764276981E-1
3.599155581E0,1.947896481E-1,-5.273294449E-1,-5.098434091E-1
3.609155547E0,2.332741618E-1,-1.270141602E0,-2.874884605E-1
3.619155547E0,2.088395506E-1,-1.716684103E0,-5.474879593E-2
3.629155547E0,1.361465901E-1,-1.702023268E0,-1.146135926E-1
3.639155547E0,5.421428941E-3,-1.370934367E0,-3.546836376E-1
3.649155547E0,-1.753946841E-1,-9.066767693E-1,-6.136904955E-1
3.659155547E0,-3.806453943E-1,-3.306308091E-1,-9.062949419E-1
3.669155547E0,-4.985423982E-1,6.070473194E-1,-1.113378286E0
3.679155547E0,-4.460079968E-1,1.839773417E0,-1.077948093E0
3.689155547E0,-2.413681298E-1,2.933222294E0,-8.006152511E-1
3.699155547E0,9.460775554E-2,3.710242748E0,-5.067890882E-1
3.709155547E0,6.633232832E-1,3.811646461E0,-3.638466001E-1
3.719155547E0,1.500819564E0,2.553874969E0,-3.748421967E-1
3.729155547E0,1.960801125E0,3.822489381E-1,-2.734385431E-1
3.739155547E0,1.712789774E0,-1.419192672E0,8.170322515E-3
3.749155547E0,1.143463373E0,-2.361757755E0,2.201405615E-1
3.759155547E0,6.602689624E-1,-2.776535273E0,2.958878577E-1
3.769155547E0,4.464661479E-1,-3.006831408E0,2.635119855E-1
3.779155547E0,4.880049825E-1,-3.037985563E0,1.651626974E-1
3.789155547E0,6.462190747E-1,-2.792417765E0,1.046870351E-1
3.799155547E0,7.671703696E-1,-2.304336309E0,1.004109755E-1
3.809155580E0,7.683921456E-1,-1.700190663E0,1.004109755E-1
3.819155546E0,6.645449996E-1,-1.163851023E0,8.452847600E-2
3.829155546E0,5.222133994E-1,-7.985535860E-1,3.504839167E-2
3.839155546E0,3.951534629E-1,-6.122397184E-1,-2.848159149E-2
3.849155546E0,3.023019433E-1,-5.609270334E-1,-7.368562371E-2
3.859155512E0,2.351067662E-1,-5.664247870E-1,-9.445504099E-2
3.869155512E0,1.807397604E-1,-5.859724879E-1,-1.207222417E-1
3.879155512E0,1.349248588E-1,-6.097962260E-1,-1.427133977E-1
3.889155512E0,1.074359268E-1,-6.372851729E-1,-1.512655020E-1
3.899155512E0,9.644035250E-2,-6.812674403E-1,-1.610393524E-1
3.909155512E0,9.521862119E-2,-7.142542005E-1,-1.811978966E-1
3.919155512E0,1.098793894E-1,-7.264714837E-1,-2.166280895E-1
3.929155512E0,1.477530301E-1,-7.344127297E-1,-2.483930737E-1
3.939155512E0,1.941787899E-1,-7.545713186E-1,-2.545017302E-1
3.949155512E0,2.375502288E-1,-7.857254148E-1,-2.441170216E-1
3.959155512E0,2.650391459E-1,-8.156577945E-1,-2.318997234E-1
3.969155512E0,2.882520258E-1,-8.455902338E-1,-2.392300963E-1
3.979155512E0,2.900846303E-1,-8.370380998E-1,-2.508365512E-1
3.989155512E0,2.778673172E-1,-7.961101532E-1,-2.826015353E-1
3.999155512E0,2.534327209E-1,-7.087563872E-1,-3.155882657E-1
4.009155512E0,2.326633036E-1,-5.988006592E-1,-3.400228620E-1
4.019155512E0,2.351067662E-1,-4.833471179E-1,-3.528510332E-1
4.029155512E0,2.583196461E-1,-3.776674271E-1,-3.400228620E-1
4.039155512E0,2.913063765E-1,-2.921462953E-1,-2.935971022E-1
4.049155512E0,3.023019433E-1,-2.182316035E-1,-2.306779921E-1
4.059155545E0,2.570978999E-1,-1.369865239E-1,-1.702023298E-1
4.069155545E0,1.789071560E-1,-4.230241850E-2,-1.256091595E-1
4.079155545E0,1.385900527E-1,-1.970040426E-2,-7.979427278E-2
4.089155545E0,1.899027377E-1,-1.162171140E-1,-5.047274008E-2
4.099155545E0,3.523928821E-1,-4.515821338E-1,-2.214386594E-3
4.109155511E0,3.212387562E-1,-6.586654782E-1,1.840995103E-1
4.119155511E0,1.746311039E-1,-9.640980959E-1,4.339433908E-1
4.129155511E0,-1.901318133E-2,-1.450346828E0,6.789003611E-1
4.139155511E0,-2.340377420E-1,-2.083203316E0,9.568440318E-1
4.149155511E0,-4.154647291E-1,-2.811354637E0,1.274493933E0
4.159155511E0,-5.413029790E-1,-3.524234295E0,1.571985364E0
4.169155511E0,-6.353762150E-1,-4.114330292E0,1.790675163E0
4.179155511E0,-7.935903072E-1,-4.403880119E0,1.870698452E0
4.189155511E0,-1.079475284E0,-4.223063946E0,1.813887954E0
4.199155511E0,-1.447216153E0,-3.538284302E0,1.706375718E0
4.209155511E0,-1.773418188E0,-2.538297892E0,1.630017519E0
4.219155511E0,-1.955456018E0,-1.571298122E0,1.547550797E0
4.229155511E0,-2.011044741E0,-7.979426980E-1,1.410106063E0
4.239155511E0,-1.984166622E0,-2.652682364E-1,1.243950725E0
4.249155511E0,-1.904143333E0,-3.313944116E-2,1.113836408E0
4.259155511E0,-1.741042256E0,-1.986839175E-1,1.008767605E0
4.269155511E0,-1.483868003E0,-6.427829266E-1,9.018661976E-1
4.279155511E0,-1.171715856E0,-1.144914150E0,8.572730422E-1
4.289155511E0,-8.088619709E-1,-1.396590710E0,9.476810694E-1
4.299155511E0,-4.386776090E-1,-1.427744746E0,1.039921761E0
4.309155544E0,-1.943315119E-1,-1.380708218E0,9.715048075E-1
4.319155544E0,-2.089922726E-1,-1.256091714E0,8.658251166E-1
4.329155544E0,-4.020256996E-1,-9.372199774E-1,7.693084478E-1
4.339155544E0,-6.146067977E-1,-4.124867618E-1,6.471353769E-1
4.349155544E0,-7.221190929E-1,9.941831976E-2,5.164102316E-1
4.359155510E0,-7.331146598E-1,4.421137273E-1,4.461607039E-1
4.369155510E0,-6.854671836E-1,5.514585972E-1,4.357759953E-1
4.379155510E0,-6.457608938E-1,5.734497309E-1,4.589888752E-1
4.389155510E0,-6.323218942E-1,5.477933884E-1,4.767039716E-1
4.399155510E0,-6.237697601E-1,4.983133376E-1,4.742605090E-1
4.409155510E0,-6.158285141E-1,4.830417037E-1,4.553236961E-1
4.419155510E0,-5.901721716E-1,5.013676286E-1,4.345542490E-1
4.429155510E0,-5.290856361E-1,5.233588219E-1,3.917936981E-1
4.439155510E0,-4.307363629E-1,5.319108963E-1,3.276528418E-1
4.449155510E0,-3.122285008E-1,5.245805383E-1,2.787836194E-1
4.459155510E0,-1.961641014E-1,5.056437254E-1,2.433534414E-1
4.469155510E0,-1.045343131E-1,4.836525619E-1,2.176970989E-1
4.479155510E0,-1.595885493E-2,4.427245855E-1,1.712713391E-1
4.489155510E0,8.361218125E-2,3.822489381E-1,8.758280426E-2
4.499155510E0,1.947896481E-1,3.089450896E-1,-2.909245715E-2
4.509155510E0,3.255148232E-1,2.032654136E-1,-1.537089646E-1
4.519155510E0,4.476878643E-1,8.720101416E-2,-2.734385431E-1
4.529155510E0,5.503132343E-1,-6.261368748E-3,-3.907246888E-1
4.539155510E0,6.303365827E-1,-6.368270516E-2,-5.043455958E-1
4.549155510E0,6.908122301E-1,-1.052215397E-1,-6.045275331E-1
4.559155543E0,7.396814823E-1,-1.430951804E-1,-6.863834858E-1
4.569155543E0,7.842746377E-1,-1.882992089E-1,-7.639633417E-1
4.579155543E0,8.300895095E-1,-1.852448881E-1,-8.342128396E-1
4.589155543E0,8.765152693E-1,-9.239336848E-2,-8.867472410E-1
4.599155543E0,9.241627455E-1,8.720101416E-2,-9.093492627E-1
4.609155509E0,9.424887300E-1,3.065016270E-1,-8.983536959E-1
4.619155509E0,8.991172910E-1,4.732678533E-1,-8.494845033E-1
4.629155509E0,8.355873227E-1,4.836525619E-1,-7.981718183E-1
4.639155509E0,7.916049957E-1,4.024074674E-1,-7.138723731E-1
4.649155509E0,8.001571298E-1,2.576324046E-1,-5.916993618E-1
4.659155509E0,8.514698148E-1,1.165225431E-1,-4.469242990E-1
4.669155509E0,8.978955746E-1,6.582073122E-2,-3.504075706E-1
4.679155509E0,8.948412538E-1,9.880745411E-2,-3.155882657E-1
4.689155509E0,8.032114506E-1,4.321871698E-2,-2.911536396E-1
4.699155509E0,6.810383797E-1,-1.565342247E-1,-2.758820057E-1
4.709155509E0,6.376669407E-1,-4.851797223E-1,-2.887101769E-1
4.719155509E0,6.871470213E-1,-8.077165484E-1,-3.565162420E-1
4.729155509E0,7.983245254E-1,-9.402743578E-1,-4.493677318E-1
4.739155509E0,8.923977613E-1,-8.376489878E-1,-4.298200607E-1
4.749155509E0,9.095019698E-1,-7.197519541E-1,-3.357468247E-1
4.759155509E0,8.294786215E-1,-8.278751373E-1,-2.764928937E-1
4.769155509E0,6.333909035E-1,-7.509061098E-1,-2.147954851E-1
4.779155509E0,4.287510514E-1,1.941024363E-1,-1.671480089E-1
4.789155509E0,2.381610870E-1,1.222188592E0,-1.640936732E-1
4.799155509E0,2.313652076E-2,1.632690072E0,-3.143665195E-1
4.809155542E0,-1.100321040E-1,1.431104541E0,-4.945717752E-1
4.819155542E0,-1.100321040E-1,8.880453706E-1,-6.326273084E-1
4.829155542E0,-1.298088697E-3,1.769981980E-1,-6.711118221E-1
4.839155542E0,1.624137908E-1,-5.707008839E-1,-5.556582808E-1
4.849155542E0,2.754238546E-1,-1.191950798E0,-3.449097872E-1
4.859155508E0,2.961932719E-1,-1.477835774E0,-2.532800138E-1
4.869155508E0,2.821433842E-1,-1.477835774E0,-4.035528600E-1
4.879155541E0,2.045634985E-1,-1.241430879E0,-7.706828713E-1
4.889155541E0,6.284276396E-2,-6.305656433E-1,-1.071228623E0
4.899155541E0,-3.306308016E-2,3.284927905E-1,-1.098717451E0
4.909155541E0,-2.817615867E-2,1.453706622E0,-8.354345560E-1
4.919155541E0,1.556942761E-1,2.522720814E0,-5.238932967E-1
4.929155541E0,5.973498225E-1,3.083495140E0,-3.754530549E-1
4.939155541E0,1.241201878E0,2.395049810E0,-3.754530549E-1
4.949155541E0,1.672472715E0,4.628831446E-1,-3.070361316E-1
4.959155541E0,1.554575682E0,-1.433242559E0,-3.947716579E-2
4.969155541E0,1.168508887E0,-2.529745579E0,2.244166136E-1
4.979155541E0,8.087092042E-1,-2.957351446E0,3.013856411E-1
4.989155541E0,6.120105982E-1,-3.061809301E0,2.635119855E-1
4.999155541E0,6.046802402E-1,-2.921921253E0,1.682170182E-1
5.009155541E0,6.926448345E-1,-2.560288906E0,7.353290170E-2
5.019155541E0,7.561748028E-1,-2.024560213E0,7.559457328E-3
5.029155541E0,7.244098186E-1,-1.406364560E0,-2.664899640E-2
5.039155541E0,6.083454490E-1,-8.675813675E-1,-3.336851299E-2
5.049155541E0,4.623486400E-1,-5.413793325E-1,-5.535966158E-2
5.059155574E0,3.151301146E-1,-3.984368443E-1,-9.750936180E-2
5.069155574E0,1.911244690E-1,-3.819434941E-1,-1.341612786E-1
5.079155574E0,1.056033298E-1,-4.210388660E-1,-1.598176211E-1
5.089155574E0,5.856670439E-2,-4.668537676E-1,-1.757001132E-1
5.099155574E0,3.535382450E-2,-5.138903856E-1,-1.848630905E-1
5.109155540E0,2.496911772E-2,-5.505422950E-1,-1.799761802E-1
5.119155540E0,3.474296257E-2,-5.664247870E-1,-1.689805984E-1
5.129155540E0,5.123632401E-2,-5.859724879E-1,-1.750892550E-1
5.139155540E0,6.467536092E-2,-5.969680548E-1,-1.885282844E-1
5.149155540E0,8.055785298E-2,-6.006332636E-1,-2.050216496E-1
5.159155540E0,1.031598672E-1,-6.122397184E-1,-2.227367461E-1
5.169155540E0,1.282053441E-1,-6.299547553E-1,-2.343431860E-1
5.179155506E0,1.459204406E-1,-6.525567770E-1,-2.373975068E-1
5.189155506E0,1.569160074E-1,-6.629415154E-1,-2.398409694E-1
5.199155506E0,1.611920595E-1,-6.476698518E-1,-2.459496260E-1
5.209155506E0,1.587486118E-1,-6.036875844E-1,-2.648864388E-1
5.219155506E0,1.483639032E-1,-5.261076689E-1,-2.948188484E-1
5.229155506E0,1.300379336E-1,-4.167627990E-1,-3.235295117E-1
5.239155506E0,1.184315011E-1,-2.890919745E-1,-3.351359367E-1
5.249155506E0,1.269836128E-1,-1.632537395E-1,-3.278055489E-1
5.259155506E0,1.544725448E-1,-6.490442902E-2,-3.003166318E-1
5.269155506E0,1.819614917E-1,-8.093964309E-3,-2.563343346E-1
5.279155506E0,1.801288873E-1,8.399397135E-3,-2.178498209E-1
5.289155506E0,1.288162023E-1,7.788531948E-3,-1.775327176E-1
5.299155506E0,4.573853686E-2,1.084285788E-2,-1.463785917E-1
5.309155539E0,-4.963280167E-3,-7.483099122E-3,-1.195005104E-1
5.319155539E0,2.435825206E-2,-1.125519201E-1,-7.063129544E-2
5.329155539E0,1.282053441E-1,-2.628247738E-1,1.427897532E-2
5.339155539E0,2.100612819E-1,-4.173736870E-1,1.535562575E-1
5.349155539E0,1.905135959E-1,-5.114469528E-1,3.142138124E-1
5.359155505E0,1.214858219E-1,-5.609270334E-1,4.767039716E-1
5.369155505E0,1.019381359E-1,-6.391177773E-1,6.624069810E-1
5.379155505E0,1.978439838E-1,-8.181012869E-1,8.817076087E-1
5.389155505E0,3.792709708E-1,-1.128420830E0,1.108338594E0
5.399155505E0,5.197699666E-1,-1.665982246E0,1.269607067E0
5.409155505E0,4.910593033E-1,-2.664747000E0,1.343521714E0
5.419155505E0,2.045634985E-1,-4.157090664E0,1.352684736E0
5.429155505E0,-2.798526287E-1,-5.592624187E0,1.348408699E0
5.439155505E0,-7.337254882E-1,-6.169891834E0,1.363680243E0
5.449155505E0,-1.013501763E0,-5.573076248E0,1.288543820E0
5.459155505E0,-1.232802391E0,-4.060574055E0,1.117501616E0
5.469155505E0,-1.494252801E0,-2.304336309E0,1.008767605E0
5.479155505E0,-1.711720824E0,-7.808384895E-1,9.825003743E-1
5.489155505E0,-1.832672119E0,5.726861581E-2,9.513462782E-1
5.499155505E0,-1.874821782E0,2.368630022E-1,8.927031755E-1
5.509155505E0,-1.835726380E0,-7.956519723E-2,8.719337583E-1
5.519155505E0,-1.701946974E0,-6.385068893E-1,8.792641759E-1
5.529155505E0,-1.461876869E0,-1.235322237E0,8.774315715E-1
5.539155505E0,-1.091692567E0,-1.723403573E0,8.279514909E-1
5.549155505E0,-7.184538841E-1,-1.820531130E0,7.082219124E-1
5.559155538E0,-5.113705397E-1,-1.552972198E0,6.153703928E-1
5.569155538E0,-4.704425931E-1,-1.233489633E0,5.671120286E-1
5.579155538E0,-4.875468314E-1,-1.070999503E0,5.396230817E-1
5.589155538E0,-5.455790162E-1,-9.182831645E-1,5.176319480E-1
5.599155538E0,-5.987243056E-1,-6.800457239E-1,4.980842471E-1
5.609155504E0,-6.164394021E-1,-4.644103050E-1,4.876995385E-1
5.619155504E0,-5.962808132E-1,-3.568980098E-1,4.962516427E-1
5.629155504E0,-5.675701499E-1,-3.330742717E-1,5.255731940E-1
5.639155504E0,-5.675701499E-1,-2.994766831E-1,5.677229166E-1
5.649155504E0,-5.742896795E-1,-2.286163121E-1,6.025422215E-1
5.659155504E0,-5.449681282E-1,-1.687515229E-1,6.068182588E-1
5.669155504E0,-4.912120104E-1,-9.666942805E-2,5.836054087E-1
5.679155504E0,-4.527274966E-1,2.306016348E-2,5.243514776E-1
5.689155504E0,-4.441753924E-1,2.399173230E-1,4.492150247E-1
5.699155504E0,-4.612796307E-1,5.215262175E-1,3.905719519E-1
5.709155504E0,-4.924337566E-1,7.958046794E-1,3.465896547E-1
5.719155504E0,-4.741078019E-1,9.430232048E-1,2.671771944E-1
5.729155504E0,-3.989713490E-1,9.161451459E-1,1.731039435E-1
5.739155504E0,-2.987894714E-1,7.628179789E-1,8.269587904E-2
5.749155504E0,-1.662317067E-1,5.148066878E-1,-1.504255645E-2
5.759155504E0,-1.046106778E-2,2.454151064E-1,-1.195005104E-1
5.769155504E0,1.453095675E-1,2.367102914E-2,-2.086868435E-1
5.779155504E0,3.053562641E-1,-1.601994038E-1,-2.905427814E-1
5.789155504E0,4.623486400E-1,-3.031418920E-1,-3.736204505E-1
5.799155504E0,5.942955017E-1,-4.051563740E-1,-4.542546570E-1
5.809155537E0,6.956991553E-1,-4.509712756E-1,-5.342780352E-1
5.819155537E0,7.683921456E-1,-4.247040749E-1,-6.045275331E-1
5.829155537E0,8.325329423E-1,-3.318525553E-1,-6.454554796E-1
5.839155537E0,8.942303658E-1,-1.699732542E-1,-6.546184421E-1
5.849155537E0,9.528734088E-1,1.634064503E-2,-6.411794424E-1
5.859155503E0,9.950231314E-1,1.721112877E-1,-6.088035703E-1
5.869155503E0,9.889144897E-1,2.674062550E-1,-5.611560941E-1
5.879155503E0,9.143888950E-1,2.857322097E-1,-5.293911099E-1
5.889155503E0,8.172613382E-1,1.818851233E-1,-4.994587004E-1
5.899155503E0,7.683921456E-1,7.742717117E-2,-4.414264858E-1
5.909155503E0,8.013788462E-1,3.466660157E-2,-3.650683463E-1
5.919155503E0,8.691849113E-1,5.115996301E-2,-3.290272951E-1
5.929155503E0,9.033933282E-1,8.964447677E-2,-3.375793993E-1
5.939155503E0,8.679631352E-1,9.880745411E-2,-3.528510332E-1
5.949155503E0,7.842746377E-1,4.199698567E-2,-3.485749662E-1
5.959155503E0,7.030295134E-1,-8.872817457E-2,-3.174208403E-1
5.969155503E0,6.987534761E-1,-2.890919745E-1,-3.210860491E-1
5.979155503E0,7.427358031E-1,-5.554292202E-1,-3.895029426E-1
5.989155503E0,7.891615629E-1,-8.681922555E-1,-3.974441886E-1
5.999155503E0,8.080983758E-1,-9.940304756E-1,-2.642755806E-1
6.009155503E0,8.068766594E-1,-7.625125647E-1,-1.048397496E-1
6.019155503E0,7.726681828E-1,-3.080287874E-1,-5.291620269E-2
6.029155503E0,6.107888818E-1,2.857322097E-1,-1.017854214E-1
6.039155503E0,3.395647109E-1,9.876163602E-1,-2.025781870E-1
6.049155503E0,3.840815276E-2,1.446987033E0,-2.697733641E-1
6.059155536E0,-1.491274834E-1,1.461647868E0,-3.821725547E-1
6.069155536E0,-1.534035355E-1,1.096961260E0,-5.135086179E-1
6.079155536E0,-2.145664208E-2,5.264131427E-1,-5.611560941E-1
6.089155536E0,1.642463952E-1,-1.027780771E-1,-4.902957082E-1
6.099155536E0,3.444516361E-1,-7.185302377E-1,-3.479641080E-1
6.109155502E0,4.269184470E-1,-1.185231328E0,-3.107013404E-1
6.119155502E0,3.426190317E-1,-1.407586217E0,-4.585307240E-1
6.129155502E0,1.074359268E-1,-1.398423314E0,-6.759987473E-1
6.139155502E0,-2.260964960E-1,-1.168737888E0,-9.380599260E-1
6.149155502E0,-5.706244707E-1,-4.918992519E-1,-1.131704211E0
6.159155502E0,-7.153995633E-1,7.884743214E-1,-1.120097756E0
6.169155502E0,-5.755113959E-1,2.098780155E0,-8.965210915E-1
6.179155502E0,-1.656208336E-1,3.098766565E0,-6.430120468E-1
6.189155502E0,5.399284959E-1,3.447570801E0,-4.951826334E-1
6.199155502E0,1.279075503E0,2.821433783E0,-4.004985392E-1
6.209155502E0,1.687133431E0,1.186147571E0,-2.496148050E-1
6.219155502E0,1.539914966E0,-6.049093008E-1,-3.764457256E-2
6.229155502E0,1.082376838E0,-1.837635398E0,1.162934676E-1
6.239155502E0,6.474407911E-1,-2.480265617E0,2.531272769E-1
6.249155502E0,4.531856477E-1,-2.824182749E0,3.459787965E-1
6.259155502E0,4.880049825E-1,-2.917034149E0,3.074942827E-1
6.269155502E0,6.199518442E-1,-2.738050699E0,2.152536362E-1
6.279155502E0,7.091382146E-1,-2.304947376E0,1.364520192E-1
6.289155502E0,7.054730058E-1,-1.749059916E0,9.613491595E-2
6.299155502E0,6.278930902E-1,-1.244485259E0,6.009386852E-2
6.309155535E0,5.203808546E-1,-8.791878223E-1,4.505131394E-3
6.319155568E0,4.256967306E-1,-6.782131195E-1,-5.291620269E-2
6.329155568E0,3.542254865E-1,-6.256787181E-1,-9.506590664E-2
6.339155568E0,2.998584807E-1,-6.409503818E-1,-1.170570552E-1
6.349155568E0,2.558761835E-1,-6.659958363E-1,-1.323286891E-1
6.359155534E0,2.210568637E-1,-6.831000447E-1,-1.488220394E-1
6.369155534E0,1.990657151E-1,-6.739370823E-1,-1.555415690E-1
6.379155534E0,1.966222525E-1,-6.550002694E-1,-1.598176211E-1
6.389155534E0,2.100612819E-1,-6.421720982E-1,-1.702023298E-1
6.399155534E0,2.241111845E-1,-6.269004345E-1,-1.897500157E-1
6.409155534E0,2.308306992E-1,-5.804746747E-1,-2.080759704E-1
6.419155534E0,2.369393557E-1,-5.102251768E-1,-2.257910669E-1
6.429155534E0,2.583196461E-1,-4.607451260E-1,-2.276236564E-1
6.439155534E0,2.876411676E-1,-4.503603876E-1,-2.245693356E-1
6.449155534E0,3.151301146E-1,-4.534147382E-1,-2.251801938E-1
6.459155534E0,3.322343230E-1,-4.564690590E-1,-2.349540442E-1
6.469155534E0,3.297908604E-1,-4.534147382E-1,-2.575560510E-1
6.479155534E0,2.980258763E-1,-4.338670373E-1,-2.948188484E-1
6.489155534E0,2.442697436E-1,-3.978259861E-1,-3.406337202E-1
6.499155534E0,1.917353272E-1,-3.471241891E-1,-3.803399801E-1
6.509155534E0,1.526399553E-1,-2.866485119E-1,-4.029420018E-1
6.519155534E0,1.373683214E-1,-2.273945808E-1,-4.035528600E-1
6.529155534E0,1.257618815E-1,-1.571450830E-1,-3.846160173E-1
6.539155534E0,8.910996467E-2,-6.918048859E-2,-3.485749662E-1
6.549155534E0,2.008219436E-2,3.222314268E-2,-2.978731692E-1
6.559155567E0,-5.994115397E-2,1.452332139E-1,-2.477822155E-1
6.569155567E0,-1.136972904E-1,2.374738604E-1,-2.013564557E-1
6.579155567E0,-1.228602752E-1,2.674062550E-1,-1.298852265E-1
6.589155567E0,-9.231700748E-2,2.649627924E-1,-4.314235970E-2
6.599155567E0,-2.451096848E-2,2.307543457E-1,4.360050708E-2
6.609155533E0,6.101016700E-2,1.739438772E-1,1.511127949E-1
6.619155499E0,9.888381511E-2,1.372919679E-1,2.855031490E-1
6.629155499E0,1.080467924E-1,7.254024595E-2,4.040110111E-1
6.639155499E0,1.520290822E-1,-1.033889428E-1,5.243514776E-1
6.649155499E0,2.167807966E-1,-3.788891733E-1,6.599635482E-1
6.659155499E0,2.778673172E-1,-7.234171629E-1,7.821365595E-1
6.669155499E0,3.108540475E-1,-1.190118194E0,9.049205184E-1
6.679155499E0,2.650391459E-1,-1.849852681E0,1.025260925E0
6.689155499E0,8.300131559E-2,-2.709950924E0,1.097343087E0
6.699155499E0,-1.937206388E-1,-3.797291040E0,1.160262227E0
6.709155499E0,-4.655556679E-1,-4.915174484E0,1.240285516E0
6.719155499E0,-6.292675734E-1,-5.568189621E0,1.319697976E0
6.729155499E0,-7.428885102E-1,-5.375155926E0,1.331915259E0
6.739155499E0,-9.627999663E-1,-4.364784718E0,1.212185740E0
6.749155499E0,-1.282282472E0,-2.963459969E0,1.114447236E0
6.759155499E0,-1.535180688E0,-1.556637406E0,1.082682252E0
6.769155499E0,-1.648801684E0,-4.717406929E-1,1.081460595E0
6.779155499E0,-1.678123236E0,9.941831976E-2,1.035034776E0
6.789155499E0,-1.644525647E0,1.708895564E-1,9.782243371E-1
6.799155499E0,-1.561447978E0,-1.786780916E-2,9.263007641E-1
6.809155532E0,-1.414840221E0,-4.100432992E-1,8.927031755E-1
6.819155532E0,-1.186376691E0,-9.653198123E-1,8.969792724E-1
6.829155532E0,-9.292023778E-1,-1.342223644E0,9.055313468E-1
6.839155532E0,-7.105126381E-1,-1.341612816E0,8.267297745E-1
6.849155532E0,-5.376377702E-1,-1.113760114E0,6.978371739E-1
6.859155498E0,-4.209625125E-1,-9.262244105E-1,5.756641626E-1
6.869155498E0,-3.855323195E-1,-8.229882121E-1,5.048037767E-1
6.879155498E0,-4.197407961E-1,-6.831000447E-1,4.993059933E-1
6.889155498E0,-4.582252800E-1,-5.578727126E-1,5.182427764E-1
6.899155498E0,-4.765512347E-1,-4.381431043E-1,5.756641626E-1
6.909155498E0,-4.930446148E-1,-3.556762934E-1,6.306419969E-1
6.919155498E0,-5.107597113E-1,-2.591595948E-1,6.892850995E-1
6.929155498E0,-5.351943374E-1,-1.412625909E-1,7.314347625E-1
6.939155498E0,-5.425246954E-1,-4.963280261E-2,7.485389709E-1
6.949155498E0,-5.468007326E-1,5.955935922E-3,7.143305540E-1
6.959155498E0,-5.565745831E-1,9.758572280E-2,6.477462053E-1
6.969155498E0,-5.846744180E-1,2.741257846E-1,5.713880658E-1
6.979155498E0,-6.182720065E-1,5.178610086E-1,4.803691506E-1
6.989155498E0,-6.286566854E-1,7.664831877E-1,3.765220642E-1
6.999155498E0,-5.803983212E-1,9.430232048E-1,2.549598813E-1
7.009155498E0,-4.777729809E-1,9.857838154E-1,1.474476010E-1
7.019155498E0,-3.604868650E-1,9.173668623E-1,4.176791012E-2
7.029155498E0,-2.560288906E-1,7.927503586E-1,-5.291620269E-2
7.039155498E0,-1.509600729E-1,6.272059083E-1,-1.463785917E-1
7.049155498E0,-2.267837152E-2,4.109596014E-1,-2.465604842E-1
7.059155531E0,1.373683214E-1,1.678352207E-1,-3.436880708E-1
7.069155531E0,3.120757937E-1,-4.291328415E-2,-4.493677318E-1
7.079155531E0,4.757876694E-1,-1.815796942E-1,-5.635995269E-1
7.089155531E0,6.095671654E-1,-2.194533348E-1,-6.814965606E-1
7.099155531E0,7.097490430E-1,-1.718058437E-1,-7.804567218E-1
7.109155497E0,7.964919209E-1,-9.728029370E-2,-8.519279361E-1
7.119155497E0,8.844565153E-1,-3.252857551E-2,-8.885798454E-1
7.129155497E0,9.669232965E-1,3.588833287E-2,-9.038515091E-1
7.139155497E0,1.016403437E0,1.342376322E-1,-8.873581290E-1
7.149155497E0,9.968557358E-1,2.667953968E-1,-8.378780484E-1
7.159155497E0,8.868999481E-1,3.620903790E-1,-7.383069992E-1
7.169155497E0,7.219663858E-1,3.962988257E-1,-5.892558694E-1
7.179155497E0,6.193410158E-1,2.631302178E-1,-3.888920844E-1
7.189155497E0,6.126214862E-1,9.758572280E-2,-2.227367461E-1
7.199155497E0,6.535494328E-1,-1.175915636E-2,-1.268308908E-1
7.209155497E0,6.498842835E-1,8.231408894E-2,-1.775327176E-1
7.219155497E0,5.759695768E-1,1.232420653E-1,-2.172389477E-1
7.229155497E0,4.751768112E-1,4.138612002E-2,-2.117411643E-1
7.239155497E0,4.281401932E-1,-2.182316035E-1,-1.769218445E-1
7.249155497E0,4.489096105E-1,-6.189591885E-1,-1.604284793E-1
7.259155497E0,5.203808546E-1,-9.384417534E-1,-1.561524272E-1
7.269155497E0,6.138432026E-1,-9.689850211E-1,-7.429648191E-2
7.279155497E0,7.128033638E-1,-7.270823717E-1,2.061670180E-3
7.289155497E0,7.677812576E-1,-3.459024429E-1,-1.042288840E-1
7.299155497E0,7.604508996E-1,1.843285859E-1,-3.107013404E-1
7.309155530E0,6.816492677E-1,8.306240439E-1,-4.090506434E-1
7.319155530E0,5.649740100E-1,1.292438149E0,-3.962224722E-1
7.329155530E0,4.592943192E-1,1.308320642E0,-4.163810313E-1
7.339155530E0,4.140902758E-1,8.794932365E-1,-4.951826334E-1
7.349155530E0,4.305836260E-1,2.032654136E-1,-5.379431844E-1
7.359155496E0,4.482987225E-1,-5.407684445E-1,-4.683045745E-1
7.369155496E0,4.079816341E-1,-1.192561626E0,-2.856558561E-1
7.379155496E0,3.340669274E-1,-1.538311362E0,-1.958586723E-1
7.389155496E0,2.509892583E-1,-1.536478758E0,-3.082578778E-1
7.399155496E0,1.379791945E-1,-1.333671570E0,-5.293911099E-1
7.409155496E0,-1.168279815E-2,-9.659306407E-1,-8.458192945E-1
7.419155496E0,-2.096031308E-1,-3.074179292E-1,-1.142088890E0
7.429155496E0,-3.244458139E-1,8.428413272E-1,-1.192179918E0
7.439155496E0,-2.395355403E-1,2.170251608E0,-9.301186800E-1
7.449155496E0,4.268420860E-2,3.256369829E0,-6.100252867E-1
7.459155496E0,5.741369724E-1,3.713907957E0,-4.035528600E-1
7.469155496E0,1.293125391E0,2.861750841E0,-3.180317283E-1
7.479155496E0,1.715233207E0,7.982481718E-1,-1.928043365E-1
7.489155496E0,1.520978093E0,-1.167516232E0,2.588541433E-2
7.499155496E0,1.062829137E0,-2.331214428E0,2.030363381E-1
7.509155496E0,6.914231181E-1,-2.851671696E0,2.848922908E-1
7.519155496E0,5.710826516E-1,-3.051424503E0,3.056617081E-1
7.529155496E0,6.987534761E-1,-3.070361376E0,2.818379402E-1
7.539155496E0,8.820130825E-1,-2.857169390E0,2.262492180E-1
7.549155496E0,9.504299760E-1,-2.425898552E0,1.651626974E-1
7.559155529E0,8.862891197E-1,-1.891391516E0,1.205695271E-1
7.569155529E0,7.500661612E-1,-1.409418821E0,8.147415519E-2
7.579155529E0,6.162866950E-1,-1.072221279E0,2.893974073E-2
7.589155529E0,5.148830414E-1,-9.054549932E-1,-2.237293869E-2
7.599155529E0,4.385249019E-1,-8.523097038E-1,-5.108360574E-2
7.609155495E0,3.774383664E-1,-8.675813675E-1,-6.818783283E-2
7.619155495E0,3.139083683E-1,-9.188940525E-1,-9.078984708E-2
7.629155495E0,2.509892583E-1,-9.689850211E-1,-1.213331074E-1
7.639155495E0,2.015091777E-1,-9.897544384E-1,-1.408807933E-1
7.649155495E0,1.721876413E-1,-9.854783416E-1,-1.445459872E-1
7.659155495E0,1.581377387E-1,-9.640980959E-1,-1.524872333E-1
7.669155495E0,1.526399553E-1,-9.262244105E-1,-1.647045463E-1
7.679155495E0,1.630246639E-1,-8.785769343E-1,-1.811978966E-1
7.689155495E0,1.917353272E-1,-8.303185701E-1,-1.946369410E-1
7.699155495E0,2.296089679E-1,-7.973318696E-1,-1.970804036E-1
7.709155495E0,2.595413625E-1,-7.869471312E-1,-1.989129931E-1
7.719155528E0,2.699260712E-1,-7.918340564E-1,-2.062433809E-1
7.729155528E0,2.796999216E-1,-8.028296232E-1,-2.264019251E-1
7.739155528E0,3.035236597E-1,-8.144360781E-1,-2.569451928E-1
7.749155528E0,3.242930770E-1,-7.991644740E-1,-3.003166318E-1
7.759155528E0,3.114649057E-1,-7.417431474E-1,-3.601814210E-1
7.769155528E0,2.613739669E-1,-6.470590234E-1,-4.139375687E-1
7.779155528E0,1.990657151E-1,-5.151121020E-1,-4.420373738E-1
7.789155528E0,1.581377387E-1,-3.605632186E-1,-4.518111944E-1
7.799155528E0,1.587486118E-1,-2.054034323E-1,-4.402047694E-1
7.809155561E0,1.837940812E-1,-5.879577994E-2,-4.011093974E-1
7.819155561E0,1.935679317E-1,6.826419383E-2,-3.320816159E-1
7.829155561E0,1.599703431E-1,1.708895564E-1,-2.587777972E-1
7.839155561E0,9.705121815E-2,2.222022265E-1,-1.848630905E-1
7.849155561E0,3.352123126E-2,2.124283910E-1,-1.005636901E-1
7.859155527E0,3.596469015E-2,1.262963861E-1,-2.970332280E-2
7.869155527E0,1.398117840E-1,-5.635231733E-2,3.688098863E-2
7.879155527E0,2.662608922E-1,-2.499966025E-1,1.614975035E-1
7.889155527E0,3.261256814E-1,-4.204280078E-1,3.074942827E-1
7.899155527E0,3.218496144E-1,-6.079636216E-1,4.541019499E-1
7.909155527E0,3.206278980E-1,-8.938485980E-1,5.836054087E-1
7.919155527E0,3.383429945E-1,-1.288467526E0,7.228826880E-1
7.929155527E0,3.328452110E-1,-1.765553236E0,8.914814591E-1
7.939155527E0,2.742021382E-1,-2.371531487E0,1.086347461E0
7.949155527E0,1.227075532E-1,-3.220023394E0,1.262887478E0
7.959155527E0,-1.760055423E-1,-4.310417652E0,1.369178057E0
7.969155527E0,-5.926156640E-1,-5.386151791E0,1.424766779E0
7.979155527E0,-9.829585552E-1,-5.943260670E0,1.495627165E0
7.989155527E0,-1.263345718E0,-5.616447926E0,1.518229246E0
7.999155527E0,-1.505859137E0,-4.420373440E0,1.419269085E0
8.009155527E0,-1.772807240E0,-2.738050699E0,1.354517341E0
8.019155493E0,-1.978668928E0,-1.234100461E0,1.357571602E0
8.029155493E0,-2.102063656E0,-2.793181241E-1,1.311756730E0
8.039155493E0,-2.180865288E0,1.800525337E-1,1.173090339E0
8.049155493E0,-2.166815281E0,5.421429127E-2,1.030758739E0
8.059155526E0,-2.055637836E0,-5.242751241E-1,9.421832561E-1
8.069155526E0,-1.776472449E0,-1.292132735E0,9.134725928E-1
8.079155526E0,-1.334206104E0,-2.010510206E0,9.562332034E-1
8.089155526E0,-8.174140453E-1,-2.096642256E0,1.007545829E0
8.099155526E0,-2.719113827E-1,-1.775938034E0,9.873872995E-1
8.109155492E0,3.718642145E-2,-1.391703725E0,9.397398233E-1
8.119155492E0,-6.795875728E-3,-1.055727839E0,8.975901008E-1
8.129155492E0,-2.926808000E-1,-7.203628421E-1,8.352818489E-1
8.139155492E0,-5.596289039E-1,-3.911064863E-1,7.302130461E-1
8.149155492E0,-6.787476540E-1,-1.064432710E-1,5.946009755E-1
8.159155492E0,-6.952410340E-1,6.032294407E-2,5.267949104E-1
8.169155492E0,-6.756933331E-1,9.208793938E-2,5.329035521E-1
8.179155492E0,-7.074583173E-1,1.287398487E-1,5.701663494E-1
8.189155492E0,-7.654905319E-1,1.953241676E-1,5.860488415E-1
8.199155492E0,-7.972555161E-1,2.753475010E-1,5.750532746E-1
8.209155492E0,-8.229118586E-1,4.372268021E-1,5.475643277E-1
8.219155492E0,-8.235226870E-1,5.948300362E-1,4.858669341E-1
8.229155492E0,-7.783187032E-1,6.992880106E-1,3.972914815E-1
8.239155492E0,-6.915758252E-1,7.793113589E-1,2.848922908E-1
8.249155492E0,-5.657375455E-1,7.805330753E-1,2.012037337E-1
8.259155492E0,-4.075234830E-1,6.962336898E-1,1.468367279E-1
8.269155492E0,-2.254856378E-1,5.789475441E-1,8.819366992E-2
8.279155492E0,-4.039346427E-2,4.616613984E-1,1.672243699E-2
8.289155492E0,1.233184189E-1,3.895792961E-1,-7.857254148E-2
8.299155492E0,2.760347426E-1,2.838996351E-1,-1.787544489E-1
8.309155525E0,4.293619096E-1,1.385136992E-1,-2.893210649E-1
8.319155525E0,5.845217109E-1,-1.175915636E-2,-4.127158225E-1
8.329155525E0,7.280750275E-1,-1.363756657E-1,-5.324454308E-1
8.339155258E0,8.557458520E-1,-2.249511331E-1,-6.387359500E-1
8.349155258E0,9.681450725E-1,-2.890919745E-1,-7.291440368E-1
8.359155224E0,1.060996532E0,-3.147483170E-1,-8.006152511E-1
8.369155224E0,1.139187336E0,-3.055853248E-1,-8.482627273E-1
8.379155224E0,1.197830439E0,-2.377792895E-1,-8.702539206E-1
8.389155224E0,1.227151871E0,-1.064432710E-1,-8.623126745E-1
8.399155224E0,1.181336999E0,-1.359175146E-2,-8.122217059E-1
8.409155224E0,1.031064153E0,7.559457421E-2,-6.986007690E-1
8.419155224E0,8.374198675E-1,4.016438872E-2,-5.073999166E-1
8.429155224E0,6.902013421E-1,-1.298088674E-2,-3.058144152E-1
8.439155224E0,6.602689624E-1,-6.673702598E-2,-1.549306959E-1
8.449155224E0,6.822600961E-1,-2.641992271E-2,-1.714240611E-1
8.459154890E0,6.730971336E-1,1.763873398E-1,-2.581669390E-1
8.469154890E0,6.394995451E-1,3.065016270E-1,-2.880993187E-1
8.479154890E0,5.765804052E-1,2.582432926E-1,-2.807689309E-1
8.489154890E0,5.454263091E-1,1.695151068E-2,-2.612212598E-1
8.499154890E0,5.539784431E-1,-3.379611969E-1,-3.021492362E-1
8.509154890E0,6.010150313E-1,-6.574437022E-1,-4.267657399E-1
8.519154890E0,6.688210964E-1,-7.301366925E-1,-5.061782002E-1
8.529154890E0,7.537313700E-1,-5.859724879E-1,-4.463134110E-1
8.539154890E0,8.997281194E-1,-3.831652105E-1,-3.455206454E-1
8.549154890E0,1.045114040E0,-4.963280261E-2,-2.019673288E-1
8.559154923E0,1.017625093E0,5.233588219E-1,-6.818783283E-2
8.569154923E0,8.068766594E-1,8.972083330E-1,-1.127809957E-1
8.579154923E0,5.136613250E-1,9.393580556E-1,-3.320816159E-1
8.589154923E0,3.047454059E-1,6.644686460E-1,-5.458844304E-1
8.599154923E0,2.094504237E-1,1.886046380E-1,-6.222426295E-1
8.609154889E0,1.679115891E-1,-4.149302244E-1,-5.532148480E-1
8.619154889E0,7.567093521E-2,-9.952521920E-1,-3.797291219E-1
8.629154889E0,-7.887797803E-2,-1.239598274E0,-3.094795942E-1
8.639155155E0,-2.651918828E-1,-1.119257808E0,-4.774675369E-1
8.649155155E0,-4.734969139E-1,-7.887797356E-1,-7.089854479E-1
8.659155655E0,-6.585890651E-1,-2.408336252E-1,-9.282860756E-1
8.669155655E0,-7.141778469E-1,6.925684810E-1,-1.120097756E0
8.679155655E0,-5.504659414E-1,1.994322300E0,-1.186682105E0
8.689155655E0,-2.645809948E-1,3.197726727E0,-9.912052155E-1
8.699155655E0,9.582948685E-2,4.008345127E0,-6.546184421E-1
8.709155655E0,6.052911282E-1,4.112802982E0,-4.127158225E-1
8.719155655E0,1.367040038E0,2.826320887E0,-3.485749662E-1
8.729155655E0,1.841682315E0,5.251913667E-1,-2.190715522E-1
8.739155655E0,1.649259806E0,-1.347110629E0,5.581781268E-2
8.749155655E0,1.155069828E0,-2.343431711E0,2.482403666E-1
8.759155988E0,7.543421984E-1,-2.789363384E0,3.349832296E-1
8.769155988E0,6.706537008E-1,-3.078913450E0,3.820198476E-1
8.779155988E0,8.019897342E-1,-3.192534447E0,3.465896547E-1
8.789155988E0,9.589820504E-1,-3.015994549E0,2.812270820E-1
8.799155988E0,1.024344683E0,-2.598773479E0,2.274709493E-1
8.809156021E0,9.809732437E-1,-2.070374966E0,1.920407563E-1
8.819156021E0,8.765152693E-1,-1.592678428E0,1.559997052E-1
8.829156021E0,7.506770492E-1,-1.243874311E0,1.004109755E-1
8.839156021E0,6.083454490E-1,-1.041677952E0,2.283108793E-2
8.849156021E0,4.519639313E-1,-9.469938278E-1,-5.535966158E-2
8.859155987E0,3.077997267E-1,-8.865181804E-1,-1.133918613E-1
8.869155987E0,2.021200359E-1,-8.290968537E-1,-1.530981064E-1
8.879155987E0,1.373683214E-1,-7.612907887E-1,-1.885282844E-1
8.889155987E0,9.827294946E-2,-6.922630668E-1,-2.074651122E-1
8.899155987E0,8.177958429E-2,-6.281222105E-1,-2.062433809E-1
8.909155987E0,8.055785298E-2,-5.603161454E-1,-2.086868435E-1
8.919155987E0,9.277515858E-2,-5.059491396E-1,-2.294562608E-1
8.929155987E0,1.135445759E-1,-4.754058719E-1,-2.557234764E-1
8.939155987E0,1.343140006E-1,-4.576907754E-1,-2.709950805E-1
8.949155987E0,1.501964927E-1,-4.430300295E-1,-2.752711475E-1
8.959155487E0,1.642463952E-1,-4.454734921E-1,-2.691625059E-1
8.969155487E0,1.837940812E-1,-4.717406929E-1,-2.630538344E-1
8.979155487E0,2.057852298E-1,-5.053382516E-1,-2.624429762E-1
8.989155487E0,2.173916698E-1,-5.316054821E-1,-2.764928937E-1
8.999155487E0,2.057852298E-1,-5.413793325E-1,-3.070361316E-1
9.009155487E0,1.727984995E-1,-5.303837657E-1,-3.455206454E-1
9.019155487E0,1.367574632E-1,-4.900666475E-1,-3.809508383E-1
9.029155487E0,1.165989041E-1,-4.271475375E-1,-4.011093974E-1
9.039155487E0,1.153771728E-1,-3.379611969E-1,-3.992767930E-1
9.049155487E0,1.159880385E-1,-2.316706479E-1,-3.736204505E-1
9.059155487E0,9.521862119E-2,-1.101084575E-1,-3.278055489E-1
9.069155487E0,4.146247730E-2,6.566801574E-3,-2.740494311E-1
9.079155487E0,-1.718058437E-2,9.330966324E-2,-2.288453877E-1
9.089155487E0,-4.039346427E-2,1.238529310E-1,-1.879174262E-1
9.099155487E0,-9.850202128E-3,1.073595658E-1,-1.335504204E-1
9.109155453E0,6.589708477E-2,6.215553731E-2,-4.497495294E-2
9.119155453E0,1.874592751E-1,-3.069597855E-2,7.108944654E-2
9.129155453E0,3.310126066E-1,-1.571450830E-1,1.712713391E-1
9.139155453E0,4.140902758E-1,-3.074179292E-1,2.519055605E-1
9.149155453E0,3.890447915E-1,-4.711298347E-1,3.300963044E-1
9.159155453E0,3.206278980E-1,-7.081455588E-1,4.235586822E-1
9.169155453E0,2.925280929E-1,-1.082605958E0,5.793293118E-1
9.179155453E0,3.041345477E-1,-1.586569786E0,7.894669771E-1
9.189155453E0,2.632065713E-1,-2.191326380E0,1.002658963E0
9.199155453E0,1.269836128E-1,-3.009274960E0,1.184085965E0
9.209155453E0,-1.497383416E-1,-3.984826803E0,1.300150275E0
9.219155453E0,-5.455790162E-1,-4.798499107E0,1.364902020E0
9.229155453E0,-9.518043995E-1,-5.090492725E0,1.390558362E0
9.239155453E0,-1.273119569E0,-4.663497925E0,1.337413073E0
9.249155453E0,-1.516854763E0,-3.548058033E0,1.261665821E0
9.259155453E0,-1.729435921E0,-2.042275190E0,1.295263410E0
9.269155453E0,-1.896202087E0,-6.843217611E-1,1.374065042E0
9.279155453E0,-2.005547047E0,1.006400511E-1,1.372232437E0
9.289155453E0,-2.065411806E0,3.144428730E-1,1.281213522E0
9.299155453E0,-2.038533688E0,9.697485715E-2,1.159040451E0
9.309155486E0,-1.908419371E0,-3.153591752E-1,1.027704358E0
9.319155486E0,-1.665905833E0,-7.509061098E-1,8.896488547E-1
9.329155486E0,-1.293278098E0,-1.249982953E0,8.022951484E-1
9.339155486E0,-8.705593348E-1,-1.510211587E0,8.090146780E-1
9.349155486E0,-5.119814277E-1,-1.338558435E0,8.529969454E-1
9.359155486E0,-2.884047627E-1,-1.061836481E0,8.365035653E-1
9.369155486E0,-2.486985177E-1,-8.046622276E-1,7.479281425E-1
9.379155619E0,-3.366630971E-1,-6.116288304E-1,6.569092274E-1
9.389155619E0,-4.527274966E-1,-4.167627990E-1,5.921574831E-1
9.399155619E0,-5.590180755E-1,-1.931861341E-1,5.402339697E-1
9.409155619E0,-5.742896795E-1,3.512475174E-3,5.402339697E-1
9.419155619E0,-5.376377702E-1,1.183551401E-1,5.646685362E-1
9.429155619E0,-5.028184652E-1,1.385136992E-1,5.976552963E-1
9.439155619E0,-5.174792409E-1,2.527455091E-1,6.294202805E-1
9.449155619E0,-5.351943374E-1,3.877467215E-1,6.520223022E-1
9.459155619E0,-5.248095989E-1,4.909829497E-1,6.562983394E-1
9.469155619E0,-4.899902940E-1,5.520694852E-1,6.269767880E-1
9.479155619E0,-4.392884672E-1,6.113234162E-1,5.536729693E-1
9.489155619E0,-3.757584691E-1,6.907358766E-1,4.553236961E-1
9.499155619E0,-3.152828217E-1,7.677049041E-1,3.856850564E-1
9.509155619E0,-2.541962862E-1,8.501716852E-1,3.343723714E-1
9.519155619E0,-1.845576614E-1,8.764389157E-1,2.800053656E-1
9.529155619E0,-8.559749275E-2,8.177958727E-1,1.804343164E-1
9.539155619E0,2.802344225E-2,7.157813311E-1,6.375905871E-2
9.549155619E0,1.459204406E-1,5.532912016E-1,-3.703370690E-2
9.559155652E0,2.766456008E-1,4.195117056E-1,-1.445459872E-1
9.569155652E0,4.275293052E-1,3.071125150E-1,-2.545017302E-1
9.579155652E0,5.863542557E-1,2.026545405E-1,-3.620140254E-1
9.589155652E0,7.286858559E-1,1.244637966E-1,-4.615850449E-1
9.599155652E0,8.319221139E-1,7.864890248E-2,-5.452736020E-1
9.609155618E0,9.015607238E-1,8.292495459E-2,-6.057492495E-1
9.619155618E0,9.461538792E-1,1.177442744E-1,-6.472880840E-1
9.629155618E0,9.602038264E-1,1.965458989E-1,-6.686683893E-1
9.639155618E0,9.321039915E-1,3.425426781E-1,-6.637814641E-1
9.649155618E0,8.679631352E-1,5.288565755E-1,-6.454554796E-1
9.659155618E0,7.677812576E-1,6.785185933E-1,-6.094144583E-1
9.669155618E0,6.547712088E-1,7.176139355E-1,-5.452736020E-1
9.679155484E0,5.668066144E-1,6.595817208E-1,-4.536437988E-1
9.689155484E0,5.338198543E-1,5.630650520E-1,-3.650683463E-1
9.699155484E0,5.399284959E-1,5.490151644E-1,-3.143665195E-1
9.709155484E0,5.460371971E-1,6.058256030E-1,-3.015383482E-1
9.719155484E0,5.307655334E-1,6.522513628E-1,-2.966514230E-1
9.729155484E0,5.136613250E-1,5.844452977E-1,-2.819906771E-1
9.739155484E0,5.075526834E-1,3.602577746E-1,-2.636647224E-1
9.749155484E0,5.448154211E-1,-2.458732575E-2,-3.052035570E-1
9.759155484E0,6.144540906E-1,-4.778493345E-1,-3.895029426E-1
9.769155484E0,6.895905137E-1,-8.944594264E-1,-4.738023579E-1
9.779155484E0,7.488444448E-1,-1.045343161E0,-3.742313087E-1
9.789155484E0,8.093200922E-1,-7.961101532E-1,-1.659262776E-1
9.799155484E0,8.856782317E-1,-2.640464902E-1,-1.188896447E-1
9.809155517E0,8.752935529E-1,4.445571899E-1,-2.783254683E-1
9.819155517E0,7.054730058E-1,1.077413559E0,-4.493677318E-1
9.829155517E0,4.525747895E-1,1.385289669E0,-5.306128263E-1
9.839155517E0,2.442697436E-1,1.308931470E0,-5.489387512E-1
9.849155517E0,1.721876413E-1,9.155342579E-1,-5.837581158E-1
9.859155483E0,2.045634985E-1,3.572034538E-1,-5.996406078E-1
9.869155483E0,2.509892583E-1,-2.316706479E-1,-5.135086179E-1
9.879155483E0,2.705369592E-1,-7.710646391E-1,-3.424663246E-1
9.889155483E0,2.650391459E-1,-1.127810001E0,-2.147954851E-1
9.899155483E0,2.228894532E-1,-1.160796642E0,-2.972623110E-1
9.909155483E0,1.104902476E-1,-8.932377100E-1,-4.939609170E-1
9.919155483E0,-8.009970188E-2,-3.959933817E-1,-7.108180523E-1
9.929155483E0,-2.786309123E-1,3.407101035E-1,-9.362273216E-1
9.939155483E0,-3.843106031E-1,1.299768567E0,-1.046793938E0
9.949155483E0,-3.293327391E-1,2.226451159E0,-9.539424181E-1
9.959155483E0,-5.261076987E-2,2.936276436E0,-7.370852828E-1
9.969155483E0,4.690681398E-1,3.145803213E0,-5.324454308E-1
9.979155483E0,1.067105174E0,2.368171930E0,-3.717878461E-1
9.989155483E0,1.308397055E0,7.787004709E-1,-1.647045463E-1
9.999155483E0,1.081766009E0,-7.502952218E-1,5.765040591E-2
1.000915548E1,7.036404014E-1,-1.606728315E0,2.079232633E-1
1.001915548E1,4.690681398E-1,-1.995238662E0,3.038291037E-1
1.002915548E1,4.617377818E-1,-2.192548037E0,3.392592967E-1
1.003915548E1,5.771912932E-1,-2.154674530E0,2.983313203E-1
1.004915548E1,6.834818721E-1,-1.890169740E0,2.390773892E-1
1.005915552E1,7.262424231E-1,-1.527315855E0,1.908190250E-1
1.006915552E1,6.987534761E-1,-1.186452985E0,1.474476010E-1
1.007915552E1,6.113997698E-1,-9.097310901E-1,1.010218412E-1
1.008915552E1,4.910593033E-1,-7.173085213E-1,5.459608138E-2
1.009915552E1,3.560580909E-1,-5.975789428E-1,3.283400787E-3
1.010915548E1,2.265546471E-1,-5.285511613E-1,-7.063129544E-2
1.011915548E1,1.275944710E-1,-4.692972302E-1,-1.366047412E-1
1.012915548E1,7.017314434E-2,-4.057672322E-1,-1.775327176E-1
1.013915548E1,5.551237985E-2,-3.532328308E-1,-1.983021349E-1
1.014915548E1,7.628180087E-2,-3.165809214E-1,-1.897500157E-1
1.015915548E1,9.949467331E-2,-2.988658249E-1,-1.805870384E-1
1.016915548E1,1.178206354E-1,-3.031418920E-1,-1.830305010E-1
1.017915548E1,1.367574632E-1,-3.373503387E-1,-1.940260679E-1
1.018915548E1,1.581377387E-1,-3.752239645E-1,-2.037999183E-1
1.019915548E1,1.954005212E-1,-4.149302244E-1,-2.001347244E-1
1.020915548E1,2.357176244E-1,-4.570799172E-1,-1.891391575E-1
1.021915548E1,2.619848251E-1,-4.973970354E-1,-1.824196279E-1
1.022915548E1,2.619848251E-1,-5.462662578E-1,-1.787544489E-1
1.023915548E1,2.497675270E-1,-5.926920176E-1,-1.824196279E-1
1.024915548E1,2.448806018E-1,-6.385068893E-1,-1.928043365E-1
1.025915548E1,2.497675270E-1,-6.721044779E-1,-2.227367461E-1
1.026915548E1,2.528218627E-1,-6.794348955E-1,-2.648864388E-1
1.027915548E1,2.344958931E-1,-6.482807398E-1,-3.161991239E-1
1.028915548E1,2.027309090E-1,-5.792529583E-1,-3.705661297E-1
1.029915548E1,1.666898578E-1,-4.918992519E-1,-4.090506434E-1
1.030915552E1,1.324813962E-1,-3.318525553E-1,-4.188244939E-1
1.031915552E1,1.202640980E-1,-2.273945808E-1,-3.943898678E-1
1.032915552E1,1.117119789E-1,-1.351539344E-1,-3.571271002E-1
1.033915512E1,9.582948685E-2,-6.673702598E-2,-3.137556612E-1
1.034915512E1,7.933612168E-2,-2.886338346E-2,-2.691625059E-1
1.035915508E1,7.689265907E-2,-2.031126991E-2,-2.318997234E-1
1.036915508E1,8.972083032E-2,-3.130684420E-2,-1.915826052E-1
1.037915508E1,1.361465901E-1,-5.940664560E-2,-1.372155994E-1
1.038915508E1,2.247220576E-1,-1.308778822E-1,-6.818783283E-2
1.039915508E1,3.774383664E-1,-2.756529450E-1,8.781188168E-3
1.040915508E1,5.002222657E-1,-4.295909703E-1,1.211803928E-1
1.041915508E1,5.185482502E-1,-5.462662578E-1,2.549598813E-1
1.042915508E1,4.861723781E-1,-7.240280509E-1,3.685808182E-1
1.043915508E1,4.678464234E-1,-1.050840974E0,4.986951053E-1
1.044915508E1,4.666246772E-1,-1.541365743E0,6.892850995E-1
1.045915508E1,4.024838507E-1,-2.168113470E0,9.134725928E-1
1.046915508E1,2.100612819E-1,-2.935971022E0,1.093067050E0
1.047915508E1,-1.625665128E-1,-3.623194456E0,1.155375242E0
1.048915508E1,-6.091089845E-1,-4.026365757E0,1.132773280E0
1.049915508E1,-9.627999663E-1,-4.117384434E0,1.071686745E0
1.050915508E1,-1.149113894E0,-3.833942890E0,9.849438667E-1
1.051915508E1,-1.274952173E0,-3.070972204E0,9.427941442E-1
1.052915508E1,-1.449048758E0,-1.968360543E0,1.013043642E0
1.053915508E1,-1.648190737E0,-8.950703144E-1,1.127886295E0
1.054915508E1,-1.806404829E0,-2.084577680E-1,1.194470644E0
1.055915465E1,-1.905975938E0,7.254024595E-2,1.172479510E0
1.056915465E1,-1.936519146E0,7.376197726E-2,1.095510483E0
1.057915465E1,-1.873600006E0,-1.137736514E-1,1.022206664E0
1.058915465E1,-1.725770712E0,-3.715587854E-1,9.605092406E-1
1.059915465E1,-1.502804875E0,-6.476698518E-1,8.927031755E-1
1.060915461E1,-1.191263556E0,-1.085049391E0,8.322275281E-1
1.061915461E1,-7.972555161E-1,-1.634828091E0,8.175667524E-1
1.062915461E1,-4.350124002E-1,-1.769829273E0,8.646034002E-1
1.063915501E1,-1.778381467E-1,-1.570076346E0,8.884271383E-1
1.064915501E1,-7.215845585E-2,-1.254259109E0,8.389470577E-1
1.065915501E1,-1.136972904E-1,-8.877398968E-1,7.699192762E-1
1.066915465E1,-2.041053474E-1,-5.285511613E-1,7.057784200E-1
1.067915465E1,-2.994003296E-1,-2.267837226E-1,6.581309438E-1
1.068915465E1,-3.659846485E-1,-2.519819140E-2,6.398049593E-1
1.069915465E1,-3.928627074E-1,8.292495459E-2,6.562983394E-1
1.070915465E1,-4.276820421E-1,1.647808999E-1,7.033349872E-1
1.071915465E1,-4.838816226E-1,2.674062550E-1,7.369325757E-1
1.072915465E1,-5.309182405E-1,3.657555580E-1,7.387651801E-1
1.073915465E1,-5.504659414E-1,4.262312353E-1,6.856198907E-1
1.074915465E1,-5.413029790E-1,4.573853612E-1,5.952118039E-1
1.075915465E1,-5.425246954E-1,5.630650520E-1,4.883103967E-1
1.076915465E1,-5.522985458E-1,7.182248235E-1,3.875176311E-1
1.077915465E1,-5.553528666E-1,8.965974450E-1,3.129920661E-1
1.078915465E1,-5.162574649E-1,1.032209516E0,2.757292986E-1
1.079915465E1,-4.093560576E-1,1.026100874E0,2.384665161E-1
1.080915468E1,-2.603049576E-1,9.521862268E-1,1.608866304E-1
1.081915468E1,-9.414960444E-2,7.573201656E-1,9.918924421E-2
1.082915468E1,6.284276396E-2,5.276348591E-1,3.504839167E-2
1.083915468E1,2.100612819E-1,3.181080818E-1,-6.513350457E-2
1.084915468E1,3.664427996E-1,1.024726480E-1,-1.683697402E-1
1.085915511E1,5.216025710E-1,-9.911288321E-2,-2.789363563E-1
1.086915511E1,6.614906788E-1,-2.542726696E-1,-3.858377635E-1
1.087915511E1,7.635052204E-1,-3.324634135E-1,-4.860196710E-1
1.088915511E1,8.343655467E-1,-3.349068761E-1,-5.678756237E-1
1.089915474E1,8.771261573E-1,-2.848159075E-1,-6.332381964E-1
1.090900692E1,8.985064030E-1,-1.882992089E-1,-6.772204638E-1
1.091900695E1,8.893434405E-1,-3.069597855E-2,-7.040985823E-1
1.092900695E1,8.490263224E-1,2.020436823E-1,-7.218136191E-1
1.093900695E1,7.787768245E-1,4.616613984E-1,-7.352526784E-1
1.094900695E1,6.785949469E-1,6.479753256E-1,-7.157049775E-1
1.095900695E1,5.747478604E-1,7.053966522E-1,-6.656140685E-1
1.096900731E1,5.142721534E-1,6.302602291E-1,-5.788711905E-1
1.097900731E1,5.429828167E-1,4.732678533E-1,-4.658611119E-1
1.098900731E1,6.364452243E-1,3.236058652E-1,-3.351359367E-1
1.099900731E1,7.250207067E-1,2.099849284E-1,-2.520582676E-1
1.100900731E1,7.537313700E-1,1.226311997E-1,-2.349540442E-1
1.101900731E1,7.366271019E-1,2.428189293E-2,-2.416735590E-1
1.102900731E1,6.999751925E-1,-1.217148975E-1,-2.367866337E-1
1.103900731E1,6.675993800E-1,-2.725986242E-1,-2.221258730E-1
1.104900731E1,6.877579093E-1,-4.332561791E-1,-2.599995136E-1
1.105900735E1,7.451792359E-1,-5.939137340E-1,-3.546836376E-1
1.106900735E1,8.007679582E-1,-6.617197990E-1,-4.377613068E-1
1.107900735E1,8.203156590E-1,-5.138903856E-1,-4.646393657E-1
1.108900735E1,7.995462418E-1,-1.430951804E-1,-4.059963226E-1
1.109900735E1,7.751116157E-1,2.887865305E-1,-3.699552715E-1
1.110900731E1,7.176902890E-1,5.813909769E-1,-3.858377635E-1
1.111900731E1,5.631414056E-1,6.797403097E-1,-3.956116140E-1
1.112900731E1,3.737731576E-1,7.524332404E-1,-3.974441886E-1
1.113900731E1,2.002874464E-1,6.504187584E-1,-4.194353521E-1
1.114900731E1,1.159880385E-1,3.083342314E-1,-4.609741867E-1
1.115900731E1,1.294270754E-1,-1.614211351E-1,-4.628067911E-1
1.116900731E1,1.886810064E-1,-6.647741199E-1,-3.986659348E-1
1.117900731E1,2.369393557E-1,-1.129031658E0,-2.667190433E-1
1.118900731E1,2.430480123E-1,-1.381319046E0,-9.628763795E-2
1.119900768E1,2.106721550E-1,-1.287856698E0,-1.005636901E-1
1.120900768E1,1.392009109E-1,-8.999572396E-1,-2.838232517E-1
1.121900765E1,1.458440814E-2,-3.361285925E-1,-5.159520507E-1
1.122900765E1,-1.705077589E-1,3.058907688E-1,-7.230353951E-1
1.123900765E1,-3.446043432E-1,9.521862268E-1,-8.959102631E-1
1.124900764E1,-4.350124002E-1,1.524566889E0,-9.747118354E-1
1.125900764E1,-3.439934850E-1,2.030363321E0,-9.087384343E-1
1.126900764E1,2.435825206E-2,2.390162945E0,-7.315874696E-1
1.127900764E1,5.820782185E-1,2.328465700E0,-5.428301096E-1
1.128900764E1,1.050001025E0,1.597259879E0,-3.418554664E-1
1.129900765E1,1.190500021E0,3.297145069E-1,-1.256091595E-1
1.130900768E1,1.024344683E0,-9.066767693E-1,4.115704447E-2
1.131900768E1,7.622834444E-1,-1.736231685E0,1.382846236E-1
1.132900768E1,5.875760317E-1,-2.159561396E0,2.189188302E-1
1.133900768E1,5.417611003E-1,-2.311055899E0,2.348013222E-1
1.134900768E1,5.887977481E-1,-2.281734467E0,1.902081668E-1
1.135900764E1,6.523277164E-1,-2.113135576E0,1.376737505E-1
1.136900764E1,6.883687973E-1,-1.870011210E0,9.430231899E-2
1.137900764E1,6.657667756E-1,-1.582293749E0,5.459608138E-2
1.138900764E1,5.949063897E-1,-1.303739190E0,1.488984004E-2
1.139900764E1,4.983896911E-1,-1.074664712E0,-2.664899640E-2
1.140900764E1,3.951534629E-1,-9.078984857E-1,-7.612907887E-2
1.141900764E1,3.120757937E-1,-7.912232280E-1,-1.127809957E-1
1.142900764E1,2.528218627E-1,-7.160868049E-1,-1.390482038E-1
1.143900764E1,2.088395506E-1,-6.611089110E-1,-1.500437707E-1
1.144900764E1,1.886810064E-1,-6.372851729E-1,-1.518763751E-1
1.145900764E1,1.880701333E-1,-6.507241726E-1,-1.561524272E-1
1.146900764E1,1.978439838E-1,-7.044803500E-1,-1.708131880E-1
1.147900764E1,2.106721550E-1,-7.588473558E-1,-2.001347244E-1
1.148900764E1,2.228894532E-1,-7.936666608E-1,-2.337323129E-1
1.149900764E1,2.442697436E-1,-7.942775488E-1,-2.654972970E-1
1.150900764E1,2.662608922E-1,-7.655668855E-1,-2.911536396E-1
1.151900764E1,2.888629138E-1,-7.246388793E-1,-3.131448030E-1
1.152900764E1,3.077997267E-1,-6.983717084E-1,-3.265838325E-1
1.153900764E1,3.328452110E-1,-6.806566119E-1,-3.314707577E-1
1.154900764E1,3.609450161E-1,-6.647741199E-1,-3.381902575E-1
1.155900768E1,3.811035454E-1,-6.415612102E-1,-3.565162420E-1
1.156900768E1,3.749949038E-1,-6.073527932E-1,-3.748421967E-1
1.157900768E1,3.401755691E-1,-5.542075038E-1,-3.809508383E-1
1.158900768E1,2.913063765E-1,-4.723515511E-1,-3.766747713E-1
1.159900768E1,2.570978999E-1,-3.862195611E-1,-3.650683463E-1
1.160900764E1,2.570978999E-1,-3.110831380E-1,-3.461315334E-1
1.161900764E1,2.644282877E-1,-2.475531399E-1,-3.021492362E-1
1.162900764E1,2.259437889E-1,-1.656972021E-1,-2.312888503E-1
1.163900764E1,1.343140006E-1,-6.185010448E-2,-1.463785917E-1
1.164900764E1,1.641700417E-2,1.023199316E-2,-5.963572115E-2
1.165900764E1,-8.987355232E-2,2.611448988E-2,2.771801129E-2
1.166900764E1,-1.350775808E-1,-1.847867295E-2,1.016327068E-1
1.167900764E1,-1.136972904E-1,-1.253800988E-1,1.596648991E-1
1.168900764E1,-7.093672454E-2,-2.609921694E-1,2.054798007E-1
1.169900764E1,-7.704538107E-2,-3.465133011E-1,2.738966942E-1
1.170900764E1,-1.039234474E-1,-3.856086731E-1,4.314999282E-1
1.171900764E1,-8.437576145E-2,-4.833471179E-1,6.581309438E-1
1.172900764E1,-8.628471754E-3,-6.531676650E-1,8.621599078E-1
1.173900764E1,8.605564386E-2,-8.706356883E-1,1.000826359E0
1.174900764E1,2.039526403E-1,-1.170570493E0,1.113836408E0
1.175900764E1,3.163518310E-1,-1.674534321E0,1.221959591E0
1.176900764E1,3.157409728E-1,-2.543184757E0,1.299539447E0
1.177900764E1,6.528622657E-2,-3.874260187E0,1.310535073E0
1.178900764E1,-4.350124002E-1,-5.265200138E0,1.309313297E0
1.179900764E1,-9.481391907E-1,-5.981134415E0,1.353295565E0
1.180900768E1,-1.300608516E0,-5.573687077E0,1.364291191E0
1.181900768E1,-1.595045567E0,-4.081343651E0,1.244561553E0
1.182900768E1,-1.910862803E0,-2.249358654E0,1.155986071E0
1.183900768E1,-2.152154684E0,-7.954992652E-1,1.110782146E0
1.184900768E1,-2.271884203E0,5.360342562E-2,1.022206664E0
1.185900764E1,-2.306703568E0,3.462078869E-1,9.660070539E-1
1.186900764E1,-2.266386509E0,-6.261368748E-3,9.904416203E-1
1.187900764E1,-2.156430721E0,-8.449793458E-1,1.025260925E0
1.188900764E1,-1.896202087E0,-1.863291740E0,1.091845274E0
1.189900764E1,-1.508913517E0,-2.320218801E0,1.143768787E0
1.190900764E1,-1.026940823E0,-2.086257458E0,1.122999430E0
1.191900764E1,-6.463717818E-1,-1.474170566E0,1.012432814E0
1.192900764E1,-4.838816226E-1,-9.158397317E-1,8.963683844E-1
1.193900764E1,-5.394703746E-1,-5.364924073E-1,8.218428493E-1
1.194900764E1,-6.726390123E-1,-2.707660198E-1,7.784714103E-1
1.195900764E1,-7.471645474E-1,-4.413501546E-2,7.094436288E-1
1.196900764E1,-7.282277346E-1,1.360702366E-1,5.897140503E-1
1.197900764E1,-6.506478190E-1,2.380847335E-1,4.522693455E-1
1.198900764E1,-6.042220592E-1,2.496911734E-1,3.307071626E-1
1.199900764E1,-5.889504552E-1,1.226311997E-1,2.842814028E-1
1.200900764E1,-6.023895144E-1,2.244929783E-2,2.897791862E-1
1.201900764E1,-6.121633053E-1,-2.519819140E-2,3.081051707E-1
1.202900764E1,-5.993351340E-1,-2.214386500E-2,2.977204621E-1
1.203900764E1,-5.632941127E-1,1.328631863E-2,2.629011273E-1
1.204900764E1,-5.003749728E-1,6.215553731E-2,2.121993154E-1
1.205900768E1,-4.050800204E-1,1.207986027E-1,1.578323096E-1
1.206900768E1,-2.884047627E-1,2.032654136E-1,1.059087589E-1
1.207900768E1,-1.753946841E-1,2.820670307E-1,6.192646548E-2
1.208900768E1,-6.421720982E-2,3.144428730E-1,2.344195358E-2
1.209900768E1,6.101016700E-2,2.948952019E-1,-2.664899640E-2
1.210900764E1,2.002874464E-1,2.527455091E-1,-9.445504099E-2
1.211900764E1,3.365103900E-1,2.026545405E-1,-1.891391575E-1
1.212900764E1,4.562399685E-1,1.458440721E-1,-2.966514230E-1
1.213900764E1,5.594761968E-1,7.070764899E-2,-4.004985392E-1
1.214900764E1,6.547712088E-1,-1.603521220E-2,-5.019021630E-1
1.215900764E1,7.415140271E-1,-1.033889428E-1,-5.971971154E-1
1.216900764E1,8.245916963E-1,-1.962404549E-1,-6.772204638E-1
1.217900764E1,9.009498954E-1,-2.878702581E-1,-7.438048124E-1
1.218900764E1,9.815840721E-1,-3.703370690E-1,-8.006152511E-1
1.219900764E1,1.056109667E0,-4.069889784E-1,-8.415432572E-1
1.220900764E1,1.113530993E0,-3.856086731E-1,-8.531496525E-1
1.221900764E1,1.136132956E0,-3.006984293E-1,-8.329911232E-1
1.222900764E1,1.120861411E0,-2.255619913E-1,-7.810675502E-1
1.223900764E1,1.063440084E0,-1.235474944E-1,-6.949355602E-1
1.224900764E1,9.687559009E-1,-1.088867337E-1,-5.281693339E-1
1.225900764E1,8.520806432E-1,-1.015563458E-1,-3.583488166E-1
1.226900764E1,7.433466315E-1,-4.657847434E-2,-2.502256632E-1
1.227900764E1,6.834818721E-1,1.067487001E-1,-2.648864388E-1
1.228900764E1,6.779840589E-1,2.539672256E-1,-2.703842223E-1
1.229900764E1,7.280750275E-1,3.614795208E-1,-2.795472145E-1
1.230900767E1,7.622834444E-1,3.712533414E-1,-2.960405648E-1
1.231900767E1,7.219663858E-1,1.556179225E-1,-2.880993187E-1
1.232900767E1,6.523277164E-1,-2.811507285E-1,-2.838232517E-1
1.233900767E1,6.040693521E-1,-8.205447197E-1,-2.984840274E-1
1.234900767E1,6.016259193E-1,-1.112538338E0,-2.813797891E-1
1.235900764E1,6.700428128E-1,-9.897544384E-1,-1.732566506E-1
1.236900764E1,8.093200922E-1,-5.951354504E-1,-5.535966158E-2
1.237900764E1,9.333257079E-1,-1.999056488E-1,-1.286634952E-1
1.238900764E1,9.278279543E-1,2.367102914E-2,-2.954297066E-1
1.239900764E1,7.464009523E-1,2.038762718E-1,-3.888920844E-1
1.240900764E1,5.582544804E-1,5.722280145E-1,-4.023311138E-1
1.241900764E1,4.085924923E-1,8.422304392E-1,-4.554764032E-1
1.242900764E1,3.328452110E-1,7.640396953E-1,-5.629886985E-1
1.243900764E1,3.517820239E-1,3.388774991E-1,-6.350708008E-1
1.244900764E1,3.951534629E-1,-3.061962128E-1,-6.033058167E-1
1.245900764E1,3.908773959E-1,-1.000749946E0,-4.652502537E-1
1.246900764E1,3.530037403E-1,-1.497994304E0,-2.441170216E-1
1.247900764E1,3.688862622E-1,-1.591456652E0,-1.085049361E-1
1.248900764E1,4.342488348E-1,-1.227991819E0,-1.763109863E-1
1.249900764E1,4.495204687E-1,-5.639813542E-1,-3.827834427E-1
1.250900764E1,3.413973153E-1,1.342376322E-1,-5.935319662E-1
1.251900764E1,1.636355221E-1,7.182248235E-1,-7.737371922E-1
1.252900764E1,2.985603921E-2,1.156826019E0,-8.696430326E-1
1.253900764E1,3.168863431E-2,1.469589114E0,-8.562039733E-1
1.254900764E1,2.271655202E-1,1.582599163E0,-7.407504916E-1
1.255900767E1,5.509241223E-1,1.417054653E0,-5.251150131E-1
1.256900767E1,8.441393971E-1,8.434522152E-1,-2.746602893E-1
1.257900767E1,9.241627455E-1,-6.979135424E-2,-1.011745557E-1
1.258900767E1,8.166504502E-1,-1.001971722E0,1.427897532E-2
1.259900767E1,7.140251398E-1,-1.702023268E0,1.682170182E-1
1.260900764E1,7.256315351E-1,-2.198045969E0,2.842814028E-1
1.261900764E1,7.879397869E-1,-2.479654789E0,2.940552533E-1
1.262900764E1,8.386416435E-1,-2.478433132E0,2.482403666E-1
1.263900764E1,8.789587021E-1,-2.321440697E0,1.963168234E-1
1.264900764E1,8.930086493E-1,-2.093587875E0,1.498910636E-1
1.265900764E1,8.520806432E-1,-1.821752906E0,9.735664725E-2
1.266900764E1,7.476227283E-1,-1.558470011E0,3.993531689E-2
1.267900764E1,5.924629569E-1,-1.350164890E0,-2.237293869E-2
1.268900764E1,4.153120220E-1,-1.181566119E0,-9.017898142E-2
1.269900764E1,2.540435791E-1,-1.011134744E0,-1.402699351E-1
1.270900764E1,1.465312988E-1,-8.486445546E-1,-1.628719419E-1
1.271900764E1,1.043815985E-1,-7.221954465E-1,-1.708131880E-1
1.272900764E1,1.056033298E-1,-6.507241726E-1,-1.714240611E-1
1.273900764E1,1.263727546E-1,-6.391177773E-1,-1.598176211E-1
1.274900764E1,1.538616866E-1,-6.861543655E-1,-1.427133977E-1
1.275900764E1,1.837940812E-1,-7.637342811E-1,-1.359938681E-1
1.276900764E1,2.143373489E-1,-8.370380998E-1,-1.304960847E-1
1.277900767E1,2.491566688E-1,-9.036223888E-1,-1.286634952E-1
1.278900767E1,2.894737720E-1,-9.867000580E-1,-1.335504204E-1
1.279900767E1,3.267365396E-1,-1.065501690E0,-1.311069578E-1
1.280900770E1,3.542254865E-1,-1.152244568E0,-1.323286891E-1
1.281900770E1,3.639993370E-1,-1.234711409E0,-1.445459872E-1
1.282900770E1,3.591124117E-1,-1.299463034E0,-1.573741585E-1
1.283900770E1,3.475059569E-1,-1.342834473E0,-1.799761802E-1
1.284900770E1,3.340669274E-1,-1.361160517E0,-2.080759704E-1
1.285900767E1,3.334560692E-1,-1.352608323E0,-2.404518276E-1
1.286900767E1,3.487277031E-1,-1.309236884E0,-2.722168267E-1
1.287900767E1,3.664427996E-1,-1.219439745E0,-3.033709526E-1
1.288900767E1,3.725514412E-1,-1.081384182E0,-3.333033621E-1
1.289900767E1,3.621667325E-1,-8.920159936E-1,-3.546836376E-1
1.290900767E1,3.218496144E-1,-6.666067243E-1,-3.699552715E-1
1.291900767E1,2.668717504E-1,-4.363104999E-1,-3.840051591E-1
1.292900767E1,2.320524305E-1,-2.249511331E-1,-3.913355470E-1
1.293900767E1,2.375502288E-1,-6.123924255E-2,-3.827834427E-1
1.294900767E1,2.778673172E-1,3.527746722E-2,-3.540727794E-1
1.295900770E1,3.175735772E-1,5.910121277E-2,-3.076470196E-1
1.296900770E1,3.371212482E-1,1.084285788E-2,-2.331214547E-1
1.297900770E1,3.132975101E-1,-8.017606288E-2,-1.549306959E-1
1.298900770E1,2.693152130E-1,-2.084577680E-1,-8.590292186E-2
1.299900770E1,2.436588705E-1,-3.740022480E-1,-7.712173741E-3
1.300900770E1,2.430480123E-1,-5.407684445E-1,9.063713253E-2
1.301900770E1,2.369393557E-1,-6.788240075E-1,2.164753675E-1
1.302900770E1,2.076178193E-1,-7.826710939E-1,3.441462219E-1
1.303900770E1,1.850158125E-1,-8.688030839E-1,4.773148298E-1
1.304900770E1,2.063960880E-1,-9.824240208E-1,6.220899224E-1
1.305900774E1,2.546544373E-1,-1.128420830E0,7.809148431E-1
1.306900774E1,3.035236597E-1,-1.287245750E0,9.128617644E-1
1.307900774E1,3.090214431E-1,-1.512044191E0,9.996046424E-1
1.308900774E1,2.320524305E-1,-1.934152126E0,1.038699985E0
1.309900774E1,3.229949996E-2,-2.813187122E0,1.050306439E0
1.310900770E1,-3.482695520E-1,-4.108221531E0,1.064356327E0
1.311900770E1,-8.296313882E-1,-5.260924339E0,1.124221087E0
1.312900770E1,-1.223028541E0,-5.610949993E0,1.238452911E0
1.313900770E1,-1.510746121E0,-5.008636951E0,1.288543820E0
1.314900770E1,-1.805183172E0,-3.781408548E0,1.277548313E0
1.315900770E1,-2.094122410E0,-2.254245520E0,1.272661328E0
1.316900770E1,-2.343966246E0,-8.907942176E-1,1.232955098E0
1.317900770E1,-2.532112837E0,-1.985311974E-3,1.170646906E0
1.318900770E1,-2.627407789E0,2.551889420E-1,1.083293200E0
1.319900770E1,-2.622520924E0,3.512475174E-3,9.910525084E-1
1.320900770E1,-2.442926407E0,-5.535966158E-1,9.287442565E-1
1.321900694E1,-2.016542435E0,-1.238987446E0,9.024770260E-1
1.322900694E1,-1.439274907E0,-1.794874787E0,9.043096304E-1
1.323900694E1,-8.119162917E-1,-1.986686468E0,9.244682193E-1
1.324900694E1,-2.639701366E-1,-1.734399199E0,9.146943688E-1
1.325900690E1,3.413209692E-2,-1.333060622E0,9.256899357E-1
1.326900690E1,2.741257846E-2,-9.940304756E-1,9.739482999E-1
1.327900690E1,-1.417970955E-1,-6.977608204E-1,9.544005990E-1
1.328900690E1,-3.470478058E-1,-3.501785100E-1,8.493317366E-1
1.329900690E1,-5.064836740E-1,-7.101308554E-2,7.350999713E-1
1.330900694E1,-6.256023645E-1,7.925976813E-2,6.966154575E-1
1.331900694E1,-6.940192580E-1,1.012509167E-1,6.917285323E-1
1.332900694E1,-7.221190929E-1,9.819658846E-2,6.850090027E-1
1.333900694E1,-6.909649372E-1,7.498370856E-2,6.544657350E-1
1.334900694E1,-6.396522522E-1,1.452332139E-1,6.153703928E-1
1.335900690E1,-6.146067977E-1,3.346014321E-1,5.402339697E-1
1.336900690E1,-5.889504552E-1,5.911648273E-1,4.382194579E-1
1.337900747E1,-5.260313153E-1,8.232936263E-1,3.178789914E-1
1.338900747E1,-4.063017368E-1,9.692904353E-1,2.024254650E-1
1.339900747E1,-2.425898612E-1,1.026711702E0,1.052978933E-1
1.340900747E1,-6.604980677E-2,1.001666307E0,2.405281924E-2
1.341900747E1,1.019381359E-1,9.118691087E-1,-6.207918003E-2
1.342900747E1,3.261256814E-1,7.102835774E-1,-1.873065531E-1
1.343900747E1,4.568508565E-1,5.936083198E-1,-2.740494311E-1
1.344900747E1,5.796347857E-1,4.805982411E-1,-3.693444133E-1
1.345900747E1,7.066947222E-1,3.278819323E-1,-4.695262909E-1
1.346900747E1,8.331438303E-1,1.660026312E-1,-5.660430193E-1
1.347900747E1,9.608146548E-1,1.634064503E-2,-6.692792177E-1
1.348900747E1,1.083598614E0,-1.076650023E-1,-7.517460585E-1
1.349900747E1,1.186834812E0,-1.944078654E-1,-8.085564971E-1
1.350900747E1,1.258306026E0,-2.121229619E-1,-8.439866900E-1
1.351900823E1,1.279075503E0,-1.198823079E-1,-8.519279361E-1
1.352900823E1,1.239369273E0,5.971207842E-2,-8.262715936E-1
1.353900823E1,1.100091934E0,2.148718536E-1,-7.395287156E-1
1.354900823E1,8.710174561E-1,3.400992155E-1,-5.929210782E-1
1.355900827E1,6.621015668E-1,3.455969989E-1,-3.540727794E-1
1.356900827E1,5.344307423E-1,2.246456891E-1,-1.109483987E-1
1.357900827E1,4.867832363E-1,1.061378345E-1,-3.642284125E-2
1.358900827E1,4.983896911E-1,1.831068546E-1,-1.195005104E-1
1.359900827E1,5.289329290E-1,2.698497176E-1,-2.068542391E-1
1.360900823E1,5.313764215E-1,2.887865305E-1,-2.673299015E-1
1.361900823E1,4.599051774E-1,2.002110779E-1,-2.416735590E-1
1.362900823E1,3.597232699E-1,-9.315694682E-3,-1.482111812E-1
1.363900823E1,3.389538527E-1,-2.506074607E-1,-1.097266674E-1
1.364900823E1,4.281401932E-1,-3.391829133E-1,-1.860848218E-1
1.365900823E1,5.503132343E-1,-1.852448881E-1,-2.923753858E-1
1.366900823E1,6.260605454E-1,7.925976813E-2,-3.113121986E-1
1.367900763E1,6.840927005E-1,3.309362531E-1,-3.296381533E-1
1.368900777E1,7.842746377E-1,4.696026444E-1,-4.298200607E-1
1.369900777E1,9.131671786E-1,5.667302608E-1,-4.847979248E-1
1.370900813E1,9.571495056E-1,6.803511381E-1,-4.078288972E-1
1.371900813E1,8.478046060E-1,7.518224120E-1,-3.259729743E-1
1.372900813E1,6.278930902E-1,5.038111210E-1,-3.345250785E-1
1.373900813E1,4.770093858E-1,1.030835137E-1,-4.432590902E-1
1.374900813E1,4.043164253E-1,-4.674646258E-1,-4.579198658E-1
1.375900813E1,3.475059569E-1,-1.043510556E0,-3.559053540E-1
1.376900813E1,2.534327209E-1,-1.482722640E0,-1.616502106E-1
1.377900813E1,1.453095675E-1,-1.570076346E0,-7.185302675E-2
1.378900813E1,4.207334295E-2,-1.259756804E0,-2.490039468E-1
1.379900813E1,-1.051451787E-1,-7.350236177E-1,-5.110651255E-1
1.380900816E1,-3.073415756E-1,-1.449277848E-1,-7.260897160E-1
1.381900776E1,-4.747186601E-1,5.783366561E-1,-9.618836641E-1
1.382900776E1,-5.058727860E-1,1.490358472E0,-1.104215264E0
1.383900776E1,-4.063017368E-1,2.426814795E0,-1.040074468E0
1.384900776E1,-2.028836161E-1,3.154966354E0,-7.890087962E-1
1.385900773E1,2.381610870E-1,3.469561815E0,-5.666538477E-1
1.386900773E1,9.321039915E-1,2.821433783E0,-4.444808364E-1
1.387900773E1,1.470887184E0,1.072526693E0,-2.746602893E-1
1.388900773E1,1.427515745E0,-7.710646391E-1,2.588541433E-2
1.389900773E1,1.041448832E0,-1.935984731E0,2.238057554E-1
1.390900773E1,6.981425881E-1,-2.496148109E0,2.714532316E-1
1.391900773E1,5.735260844E-1,-2.764317989E0,2.745075822E-1
1.392900773E1,6.529386044E-1,-2.822961092E0,2.543490231E-1
1.393900773E1,8.105418086E-1,-2.709950924E0,2.213622928E-1
1.394900773E1,9.211084247E-1,-2.438115835E0,1.865429729E-1
1.395900773E1,9.247736335E-1,-2.087479353E0,1.327868253E-1
1.396900773E1,8.294786215E-1,-1.752725124E0,8.208502084E-2
1.397900773E1,6.999751925E-1,-1.488220453E0,4.176791012E-2
1.398900760E1,5.716935396E-1,-1.295797944E0,-9.926559869E-4
1.399900760E1,4.641812146E-1,-1.157742381E0,-4.253149405E-2
1.400900723E1,3.811035454E-1,-1.051451802E0,-7.124216110E-2
1.401900723E1,3.126866519E-1,-9.640980959E-1,-9.567677230E-2
1.402900723E1,2.570978999E-1,-9.103419185E-1,-1.219439730E-1
1.403900723E1,2.112830132E-1,-8.773552179E-1,-1.421025246E-1
1.404900723E1,1.819614917E-1,-8.712465763E-1,-1.598176211E-1
1.405900726E1,1.727984995E-1,-8.901833892E-1,-1.824196279E-1
1.406900726E1,1.831832081E-1,-9.036223888E-1,-2.190715522E-1
1.407900726E1,2.033417672E-1,-9.091202021E-1,-2.612212598E-1
1.408900726E1,2.338850349E-1,-8.944594264E-1,-3.003166318E-1
1.409900726E1,2.619848251E-1,-8.553640842E-1,-3.375793993E-1
1.410900723E1,2.870303094E-1,-8.181012869E-1,-3.705661297E-1
1.411900763E1,3.151301146E-1,-7.900014520E-1,-3.962224722E-1
1.412900763E1,3.493385613E-1,-7.747298479E-1,-4.176027477E-1
1.413900763E1,3.768275082E-1,-7.484626174E-1,-4.426482320E-1
1.414900763E1,3.841578662E-1,-6.849326491E-1,-4.664719701E-1
1.415900763E1,3.609450161E-1,-5.774203539E-1,-4.731914997E-1
1.416900763E1,3.120757937E-1,-4.424191415E-1,-4.609741867E-1
1.417900763E1,2.687043548E-1,-3.019201458E-1,-4.487568736E-1
1.418900763E1,2.534327209E-1,-1.632537395E-1,-4.365395904E-1
1.419900763E1,2.632065713E-1,-3.802636266E-2,-4.249331355E-1
1.420900763E1,2.601522505E-1,8.414668590E-2,-3.962224722E-1
1.421900763E1,2.118938863E-1,2.124283910E-1,-3.424663246E-1
1.422900763E1,1.098793894E-1,3.431535661E-1,-2.868776023E-1
1.423900763E1,3.588833380E-3,4.231768847E-1,-2.361757755E-1
1.424900763E1,-7.276932150E-2,4.164573848E-1,-1.848630905E-1
1.425900763E1,-8.498662710E-2,3.321579695E-1,-1.445459872E-1
1.426900763E1,-4.344778880E-2,1.941024363E-1,-1.115592644E-1
1.427900763E1,1.519527286E-2,4.321871698E-2,-3.336851299E-2
1.428900763E1,3.657555580E-2,-5.879577994E-2,1.456149966E-1
1.429900763E1,3.718642145E-2,-1.925752759E-1,3.410918713E-1
1.430900766E1,5.734497309E-2,-3.978259861E-1,4.968625307E-1
1.431900766E1,9.033169597E-2,-6.177374721E-1,6.227007508E-1
1.432900766E1,1.184315011E-1,-8.364272118E-1,7.497607470E-1
1.433900766E1,1.697441787E-1,-1.120479584E0,8.896488547E-1
1.434900766E1,2.399936765E-1,-1.573741555E0,1.039310813E0
1.435900763E1,2.399936765E-1,-2.330603600E0,1.157207847E0
1.436900763E1,4.634939879E-2,-3.537062407E0,1.228679061E0
1.437900763E1,-4.008039534E-1,-4.982980728E0,1.278770089E0
1.438900763E1,-9.114872813E-1,-5.895613194E0,1.396056175E0
1.439900763E1,-1.284726024E0,-5.682421207E0,1.542052984E0
1.440900763E1,-1.589547753E0,-4.318358898E0,1.512120605E0
1.441900763E1,-1.970116735E0,-2.360536098E0,1.352684736E0
1.442900763E1,-2.307314396E0,-6.409503818E-1,1.273883104E0
1.443900763E1,-2.487519741E0,3.932445049E-1,1.169425130E0
1.444900763E1,-2.513786793E0,7.005097270E-1,1.041754365E0
1.445900763E1,-2.391002893E0,4.341724813E-1,9.788352251E-1
1.446900763E1,-2.196136951E0,-2.732094824E-1,9.727265239E-1
1.447900763E1,-1.895591259E0,-1.221272349E0,1.019763112E0
1.448900763E1,-1.495474458E0,-2.000125647E0,1.093677878E0
1.449900763E1,-9.713521004E-1,-2.153452635E0,1.147433996E0
1.450900763E1,-3.879757822E-1,-1.842522264E0,1.145601392E0
1.451900763E1,-1.656972058E-2,-1.311069489E0,1.116279840E0
1.452900763E1,2.977967961E-3,-8.016079068E-1,1.083293200E0
1.453900763E1,-2.377029359E-1,-3.831652105E-1,1.028926134E0
1.454900763E1,-4.820490479E-1,-9.926560335E-3,9.153051972E-1
1.455900763E1,-5.865070224E-1,3.113885522E-1,7.577019930E-1
1.456900763E1,-5.816200972E-1,4.506658316E-1,6.654613018E-1
1.457900723E1,-5.681810379E-1,4.555527568E-1,6.477462053E-1
1.458900723E1,-5.987243056E-1,4.323398769E-1,6.648504734E-1
1.459900723E1,-6.585890651E-1,4.085161388E-1,6.819546819E-1
1.460900719E1,-7.056257129E-1,4.201225638E-1,6.874524951E-1
1.461900719E1,-7.184538841E-1,4.897612035E-1,6.556875110E-1
1.462900719E1,-6.879106164E-1,6.565274000E-1,5.909357667E-1
1.463900719E1,-6.500369906E-1,8.654433489E-1,4.883103967E-1
1.464900719E1,-5.755113959E-1,9.576839805E-1,3.649156392E-1
1.465900719E1,-4.679991305E-1,9.405797720E-1,2.702315152E-1
1.466900719E1,-3.213914633E-1,8.617781401E-1,1.810451895E-1
1.467900719E1,-1.344667077E-1,7.713701129E-1,9.980010986E-2
1.468900723E1,7.567093521E-2,6.650795341E-1,1.305724494E-2
1.469900723E1,2.772564590E-1,5.697845817E-1,-9.934195876E-2
1.470900723E1,4.440226853E-1,5.001459122E-1,-2.337323129E-1
1.471900723E1,5.814673305E-1,4.262312353E-1,-3.760639131E-1
1.472900723E1,7.073056102E-1,3.254384696E-1,-5.159520507E-1
1.473900723E1,8.325329423E-1,2.240348309E-1,-6.356816292E-1
1.474900723E1,9.595929384E-1,1.293507218E-1,-7.383069992E-1
1.475900723E1,1.101313710E0,6.566801574E-3,-8.268824816E-1
1.476900723E1,1.249143124E0,-1.266018152E-1,-8.952993751E-1
1.477900723E1,1.367650867E0,-2.316706479E-1,-9.441685677E-1
1.478900723E1,1.426293969E0,-2.677116990E-1,-9.704357982E-1
1.479900723E1,1.407968044E0,-2.066251636E-1,-9.521098137E-1
1.480900726E1,1.294347048E0,-8.078692853E-2,-8.384889364E-1
1.481900726E1,1.117196202E0,3.039054573E-2,-6.179665327E-1
1.482900726E1,9.602038264E-1,9.819658846E-2,-2.771037519E-1
1.483900726E1,8.416959643E-1,4.566217586E-2,1.034653038E-1
1.484900726E1,7.427358031E-1,-1.626428664E-1,3.019964993E-1
1.485900726E1,6.382778287E-1,-3.208569586E-1,2.201405615E-1
1.486900726E1,5.435937047E-1,-1.840231568E-1,2.283108793E-2
1.487900766E1,4.977788031E-1,-4.413501546E-2,-1.195005104E-1
1.488900766E1,5.026657581E-1,-4.291328415E-2,-1.983021349E-1
1.489900766E1,5.057200789E-1,-1.901318133E-1,-2.508365512E-1
1.490900766E1,4.996114075E-1,-3.917173445E-1,-3.033709526E-1
1.491900766E1,4.446335435E-1,-3.068070710E-1,-3.326924741E-1
1.492900766E1,3.670536578E-1,4.138612002E-2,-3.601814210E-1
1.493900766E1,3.884339333E-1,3.077233732E-1,-4.438699484E-1
1.494900766E1,5.405393839E-1,2.893974185E-1,-4.994587004E-1
1.495900766E1,6.944774389E-1,1.996002197E-1,-3.669009507E-1
1.496900766E1,7.549530864E-1,5.740606189E-1,-2.654972970E-1
1.497900766E1,6.511059999E-1,8.843801618E-1,-3.491858542E-1
1.498900763E1,4.458552599E-1,8.080220222E-1,-5.348888636E-1
1.499900762E1,2.974150181E-1,6.021603942E-1,-7.309766412E-1
1.500900762E1,2.351067662E-1,2.802344263E-1,-8.012261391E-1
1.501900762E1,2.552653253E-1,-1.088867337E-1,-7.438048124E-1
1.502900762E1,3.059671223E-1,-5.322163701E-1,-5.385540724E-1
1.503900763E1,2.864194512E-1,-8.535314798E-1,-3.174208403E-1
1.504900763E1,1.318705380E-1,-9.408851862E-1,-3.772856593E-1
1.505900766E1,-1.381319016E-1,-7.954992652E-1,-6.161339283E-1
1.506900766E1,-4.014148116E-1,-3.367394805E-1,-8.421540856E-1
1.507900766E1,-5.150357485E-1,4.879286289E-1,-9.789879322E-1
1.508900766E1,-4.136321247E-1,1.525177836E0,-9.899834991E-1
1.509900766E1,-1.540143937E-1,2.540435791E0,-8.177194595E-1
1.510900762E1,2.143373489E-1,3.277750254E0,-5.904776454E-1
1.511900762E1,7.152468562E-1,3.395036221E0,-4.365395904E-1
1.512900762E1,1.297401428E0,2.375502110E0,-3.339142203E-1
1.513900762E1,1.531973720E0,5.997169614E-1,-1.640936732E-1
1.514900762E1,1.261360407E0,-1.017854214E0,1.004109755E-1
1.515900762E1,8.019897342E-1,-1.974469185E0,2.873357534E-1
1.516900762E1,4.641812146E-1,-2.445446253E0,3.404810131E-1
1.517900762E1,4.000403881E-1,-2.676964283E0,3.325397670E-1
1.518900762E1,5.533675551E-1,-2.758209229E0,2.726749778E-1
1.519900762E1,7.702246904E-1,-2.634203672E0,2.335795909E-1
1.520900762E1,9.015607238E-1,-2.337934017E0,2.103667259E-1
1.521900762E1,8.948412538E-1,-1.968971372E0,1.688278764E-1
1.522900762E1,7.989353538E-1,-1.611004353E0,1.242347211E-1
1.523900762E1,6.834818721E-1,-1.325119376E0,7.047858089E-2
1.524900762E1,5.655848384E-1,-1.114981771E0,5.726861767E-3
1.525900762E1,4.464661479E-1,-9.592111707E-1,-6.146831438E-2
1.526900762E1,3.420081735E-1,-8.376489878E-1,-1.164461896E-1
1.527900766E1,2.601522505E-1,-7.356344461E-1,-1.628719419E-1
1.528900766E1,2.051743716E-1,-6.513350606E-1,-1.915826052E-1
1.529900766E1,1.770745665E-1,-5.890268087E-1,-1.970804036E-1
1.530900769E1,1.703550518E-1,-5.658139586E-1,-2.013564557E-1
1.531900769E1,1.795180291E-1,-5.755877495E-1,-2.141846269E-1
1.532900772E1,1.880701333E-1,-6.000223756E-1,-2.331214547E-1
1.533900772E1,1.892918646E-1,-6.177374721E-1,-2.557234764E-1
1.534900772E1,1.807397604E-1,-6.159048676E-1,-2.789363563E-1
1.535900769E1,1.734093726E-1,-6.152940392E-1,-2.935971022E-1
1.536900769E1,1.758528352E-1,-6.226243973E-1,-2.966514230E-1
1.537900769E1,1.905135959E-1,-6.342308521E-1,-2.935971022E-1
1.538900769E1,2.180025280E-1,-6.531676650E-1,-2.874884605E-1
1.539900769E1,2.509892583E-1,-6.678284407E-1,-2.905427814E-1
1.540900769E1,2.632065713E-1,-6.586654782E-1,-3.070361316E-1
1.541900769E1,2.381610870E-1,-6.201809645E-1,-3.253620863E-1
1.542900769E1,1.819614917E-1,-5.633704662E-1,-3.479641080E-1
1.543900769E1,1.269836128E-1,-5.028948188E-1,-3.669009507E-1
1.544900769E1,1.019381359E-1,-4.454734921E-1,-3.785073757E-1
1.545900769E1,1.062141955E-1,-3.959933817E-1,-3.669009507E-1
1.546900769E1,1.123228446E-1,-3.410155177E-1,-3.296381533E-1
1.547900769E1,8.727737516E-2,-2.713768780E-1,-2.777146101E-1
1.548900769E1,3.474296257E-2,-1.821905524E-1,-2.245693356E-1
1.549900769E1,-2.390010282E-2,-7.956519723E-2,-1.879174262E-1
1.550900769E1,-6.360634416E-2,1.206458826E-2,-1.689805984E-1
1.551900769E1,-5.016730726E-2,6.459899992E-2,-1.647045463E-1
1.552900769E1,2.741257846E-2,5.054909736E-2,-1.384373307E-1
1.553900769E1,1.343140006E-1,-3.817907767E-3,-2.237293869E-2
1.554900769E1,2.106721550E-1,-8.872817457E-2,1.272890419E-1
1.555900772E1,2.320524305E-1,-2.090686262E-1,2.415208519E-1
1.556900772E1,2.564870417E-1,-3.776674271E-1,3.136029541E-1
1.557900769E1,3.346777856E-1,-6.372851729E-1,4.241695404E-1
1.558900769E1,4.800637364E-1,-1.019075990E0,5.933791995E-1
1.559900769E1,6.254496574E-1,-1.576185107E0,8.255079985E-1
1.560900765E1,6.529386044E-1,-2.455220222E0,1.088180065E0
1.561900765E1,4.110359550E-1,-3.742923975E0,1.288543820E0
1.562900762E1,-1.350775808E-1,-5.243820190E0,1.393612742E0
1.563900762E1,-7.838164568E-1,-6.264575958E0,1.474246860E0
1.564900762E1,-1.212643862E0,-6.157674313E0,1.516396642E0
1.565900762E1,-1.358029842E0,-4.745354176E0,1.465083957E0
1.566900762E1,-1.566334844E0,-2.590221405E0,1.457753539E0
1.567900762E1,-1.984777570E0,-7.270823717E-1,1.504179358E0
1.568900762E1,-2.337246895E0,4.415028691E-1,1.442481875E0
1.569900762E1,-2.480800152E0,9.998337030E-1,1.313589334E0
1.570900762E1,-2.450256824E0,1.018770456E0,1.172479510E0
1.571900762E1,-2.306092739E0,6.601926088E-1,1.075351954E0
1.572900762E1,-2.021429539E0,2.855795063E-2,1.011211038E0
1.573900762E1,-1.536402464E0,-7.796167731E-1,1.023428321E0
1.574900762E1,-9.884563088E-1,-1.320232511E0,1.145601392E0
1.575900762E1,-4.496731758E-1,-1.392314553E0,1.212796569E0
1.576900762E1,-5.383250117E-2,-1.176068306E0,1.165759921E0
1.577900762E1,1.030835137E-2,-9.140071273E-1,1.097343087E0
1.578900762E1,-2.352594733E-1,-6.360634565E-1,1.050917268E0
1.579900762E1,-4.820490479E-1,-3.086396754E-1,9.519571066E-1
1.580900765E1,-5.987243056E-1,5.604688451E-2,7.955756187E-1
1.581900765E1,-5.999460220E-1,3.804163337E-1,6.831763983E-1
1.582900765E1,-5.486333370E-1,5.251913667E-1,6.459136605E-1
1.583900765E1,-5.168683529E-1,5.923865438E-1,6.495788097E-1
1.584900765E1,-5.309182405E-1,6.046038866E-1,6.538549066E-1
1.585900762E1,-5.333617330E-1,5.099197626E-1,6.508005857E-1
1.586900762E1,-5.187009573E-1,4.305072725E-1,6.404158473E-1
1.587900762E1,-5.046510696E-1,4.879286289E-1,6.208681464E-1
1.588900762E1,-4.655556679E-1,6.082690954E-1,5.689446330E-1
1.589900762E1,-3.928627074E-1,6.870706677E-1,4.767039716E-1
1.590900762E1,-3.073415756E-1,7.225008607E-1,3.557526469E-1
1.591900765E1,-2.242639065E-1,7.396050692E-1,2.348013222E-1
1.592900765E1,-1.308015138E-1,7.365507483E-1,1.291216463E-1
1.593900765E1,-5.574145354E-3,6.663012505E-1,3.993531689E-2
1.594900765E1,1.306488067E-1,5.795583725E-1,-5.352706835E-2
1.595900765E1,2.442697436E-1,5.111414790E-1,-1.585958898E-1
1.596900765E1,3.365103900E-1,4.280638099E-1,-2.551125884E-1
1.597900765E1,4.311945140E-1,3.174972236E-1,-3.565162420E-1
1.598900765E1,5.332090259E-1,1.757764816E-1,-4.597524405E-1
1.599900765E1,6.333909035E-1,3.466660157E-2,-5.635995269E-1
1.600900765E1,7.305184603E-1,-9.483683109E-2,-6.662248969E-1
1.601900765E1,8.313112259E-1,-1.986839175E-1,-7.657959461E-1
1.602900765E1,9.363800883E-1,-2.652682364E-1,-8.427649736E-1
1.603900765E1,1.044503212E0,-3.037527502E-1,-9.044623375E-1
1.604900765E1,1.130024314E0,-2.548835278E-1,-9.466120601E-1
1.605900768E1,1.155069828E0,-1.101084575E-1,-9.600511193E-1
1.606900769E1,1.078711629E0,8.109235764E-2,-9.374490976E-1
1.607900768E1,9.003390074E-1,2.270891517E-1,-8.574257493E-1
1.608900769E1,6.694319248E-1,3.236058652E-1,-7.047094107E-1
1.609900768E1,4.812854528E-1,3.358231783E-1,-4.640285075E-1
1.610900765E1,4.275293052E-1,1.959350258E-1,-1.934152097E-1
1.611900765E1,4.568508565E-1,9.147707373E-2,-4.864014685E-2
1.612900765E1,4.354705513E-1,1.623374373E-1,-8.834638447E-2
1.613900765E1,3.823252916E-1,1.458440721E-1,-1.500437707E-1
1.614900765E1,3.371212482E-1,-3.191770986E-2,-1.787544489E-1
1.615900765E1,3.578906655E-1,-2.719877362E-1,-1.940260679E-1
1.616900765E1,4.348596931E-1,-5.193881989E-1,-2.789363563E-1
1.617900765E1,5.252677798E-1,-6.879869699E-1,-4.469242990E-1
1.618900765E1,5.991824269E-1,-6.440047026E-1,-5.190063715E-1
1.619900765E1,6.333909035E-1,-4.082106948E-1,-4.463134110E-1
1.620900765E1,6.761514544E-1,-1.803579628E-1,-3.736204505E-1
1.621900762E1,7.421249151E-1,-1.125519201E-1,-3.711769879E-1
1.622900762E1,7.763333917E-1,2.038762718E-1,-3.064252734E-1
1.623900762E1,7.347945571E-1,9.485210180E-1,-2.557234764E-1
1.624900762E1,5.466480255E-1,1.390176535E0,-3.479641080E-1
1.625900762E1,3.120757937E-1,1.358411551E0,-5.452736020E-1
1.626900762E1,1.850158125E-1,9.821186066E-1,-6.814965606E-1
1.627900762E1,2.454914749E-1,3.584251702E-1,-7.144832611E-1
1.628900762E1,4.085924923E-1,-4.888449013E-1,-5.959753990E-1
1.629900762E1,5.411502719E-1,-1.350164890E0,-2.813797891E-1
1.630900765E1,5.765804052E-1,-1.794263959E0,-3.825543448E-2
1.631900765E1,5.075526834E-1,-1.647656322E0,-1.793653071E-1
1.632900765E1,3.120757937E-1,-1.129642606E0,-4.964043796E-1
1.633900765E1,1.153008174E-2,-4.570799172E-1,-8.293259144E-1
1.634900765E1,-2.847395539E-1,3.364340365E-1,-1.104826212E0
1.635900762E1,-4.227951169E-1,1.284496903E0,-1.208062410E0
1.636900762E1,-3.415500224E-1,2.302198410E0,-1.021137595E0
1.637900762E1,1.458440814E-2,3.077997208E0,-7.474699616E-1
1.638900762E1,6.309474111E-1,3.220328808E0,-5.593234897E-1
1.639900762E1,1.280908108E0,2.244776964E0,-4.029420018E-1
1.640900722E1,1.493489146E0,4.256203473E-1,-1.769218445E-1
1.641900722E1,1.203939080E0,-1.245706916E0,8.269587904E-2
1.642900722E1,7.885506749E-1,-2.160783052E0,2.372447848E-1
1.643900722E1,5.356524587E-1,-2.598773479E0,2.855031490E-1
1.644900722E1,5.197699666E-1,-2.802802563E0,2.738966942E-1
1.645900722E1,6.810383797E-1,-2.800359011E0,2.238057554E-1
1.646900722E1,8.844565153E-1,-2.617710352E0,1.749365330E-1
1.647900722E1,9.938014150E-1,-2.295784235E0,1.193477958E-1
1.648900722E1,9.430995584E-1,-1.895667553E0,5.887213722E-2
1.649900722E1,7.763333917E-1,-1.507157326E0,2.290744742E-4
1.650900722E1,5.832999349E-1,-1.189507365E0,-7.429648191E-2
1.651900722E1,4.208098054E-1,-9.457721114E-1,-1.506546438E-1
1.652900722E1,2.968041599E-1,-7.502952218E-1,-2.080759704E-1
1.653900722E1,2.106721550E-1,-5.914703012E-1,-2.422844321E-1
1.654900722E1,1.544725448E-1,-4.717406929E-1,-2.496148050E-1
1.655900725E1,9.949467331E-2,-3.617849350E-1,-2.587777972E-1
1.656900725E1,7.689265907E-2,-3.239113092E-1,-2.508365512E-1
1.657900725E1,7.261660695E-2,-3.245221674E-1,-2.355649173E-1
1.658900725E1,8.422304690E-2,-3.575088978E-1,-2.404518276E-1
1.659900728E1,1.062141955E-1,-3.911064863E-1,-2.606103718E-1
1.660900725E1,1.269836128E-1,-4.112650156E-1,-2.777146101E-1
1.661900725E1,1.465312988E-1,-4.240931869E-1,-2.887101769E-1
1.662900725E1,1.624137908E-1,-4.350887835E-1,-2.948188484E-1
1.663900725E1,1.752419621E-1,-4.528038502E-1,-3.015383482E-1
1.664900725E1,1.862375438E-1,-4.637994468E-1,-3.070361316E-1
1.665900725E1,1.941787899E-1,-4.662429094E-1,-3.155882657E-1
1.666900725E1,1.929570585E-1,-4.460843503E-1,-3.290272951E-1
1.667900725E1,1.618029326E-1,-3.843869567E-1,-3.504075706E-1
1.668900725E1,1.135445759E-1,-2.890919745E-1,-3.583488166E-1
1.669900725E1,6.895141304E-2,-1.864666194E-1,-3.614031374E-1
1.670900765E1,4.818199575E-2,-9.300423414E-2,-3.565162420E-1
1.671900765E1,5.429064855E-2,-2.764165215E-2,-3.345250785E-1
1.672900765E1,6.589708477E-2,1.679879380E-3,-2.893210649E-1
1.673900765E1,3.535382450E-2,1.389718428E-2,-2.361757755E-1
1.674900765E1,-4.528038576E-2,3.527746722E-2,-1.952477992E-1
1.675900765E1,-1.393536329E-1,6.032294407E-2,-1.665371358E-1
1.676900765E1,-2.016618848E-1,7.987063378E-2,-1.433242559E-1
1.677900765E1,-1.973858327E-1,5.177082866E-2,-9.140071273E-2
1.678900765E1,-1.344667077E-1,-8.093964309E-3,1.450804994E-3
1.679900765E1,-5.505422875E-2,-6.856962293E-2,1.248455867E-1
1.680900768E1,-4.963280167E-3,-1.125519201E-1,2.824488282E-1
1.681900768E1,3.291036561E-2,-1.986839175E-1,4.687627256E-1
1.682900768E1,1.086576581E-1,-3.630066812E-1,6.776786447E-1
1.683900768E1,2.461023331E-1,-6.531676650E-1,8.927031755E-1
1.684900768E1,4.067598879E-1,-1.116814375E0,1.112003803E0
1.685900765E1,4.928919077E-1,-1.894445896E0,1.290987372E0
1.686900765E1,3.413973153E-1,-3.195588827E0,1.371621609E0
1.687900765E1,-1.570687294E-1,-4.959156990E0,1.374675870E0
1.688900765E1,-8.504008055E-1,-6.375753403E0,1.425988555E0
1.689900761E1,-1.325653911E0,-6.598719120E0,1.559157133E0
1.690900761E1,-1.461876869E0,-5.392260075E0,1.550605059E0
1.691900761E1,-1.594434619E0,-3.188869238E0,1.437595010E0
1.692900761E1,-1.886428237E0,-1.097266674E0,1.395445347E0
1.693900761E1,-2.167426348E0,2.643519342E-1,1.320919752E0
1.694900761E1,-2.347631454E0,9.301950336E-1,1.185918570E0
1.695890549E1,-2.354351044E0,8.874344826E-1,1.068632364E0
1.696890549E1,-2.208354235E0,2.393064648E-1,9.867764711E-1
1.697890549E1,-1.911473751E0,-7.270823717E-1,9.421832561E-1
1.698890549E1,-1.525406837E0,-1.430799127E0,9.922742248E-1
1.699890549E1,-1.068479657E0,-1.537089705E0,1.070464969E0
1.700890549E1,-5.553528666E-1,-1.287245750E0,1.061301947E0
1.701890549E1,-1.937206388E-1,-9.396634698E-1,9.977720380E-1
1.702890549E1,-1.491274834E-1,-6.812674403E-1,9.452376366E-1
1.703890549E1,-3.342196345E-1,-4.418082833E-1,9.153051972E-1
1.704890549E1,-4.906011522E-1,-1.620320082E-1,8.450556993E-1
1.705890559E1,-5.199226737E-1,1.024726480E-1,7.198283076E-1
1.706890562E1,-4.777729809E-1,2.985603809E-1,6.257550716E-1
1.707890562E1,-4.368450046E-1,3.449861407E-1,5.964335799E-1
1.708890562E1,-4.282929003E-1,3.474296033E-1,5.884923339E-1
1.709890562E1,-4.234059751E-1,3.095559776E-1,5.891031623E-1
1.710890559E1,-4.142429829E-1,2.851213515E-1,5.915466547E-1
1.711890559E1,-3.983604908E-1,3.162754774E-1,5.726097822E-1
1.712890559E1,-3.684281111E-1,4.225660264E-1,5.280166268E-1
1.713890559E1,-3.030655086E-1,5.508477092E-1,4.559345543E-1
1.714890559E1,-2.102140039E-1,6.394231915E-1,3.588069677E-1
1.715890559E1,-1.033125818E-1,6.925684810E-1,2.519055605E-1
1.716890559E1,-1.908953884E-3,7.194465399E-1,1.572214365E-1
1.717890559E1,9.216429293E-2,6.913467646E-1,7.964155823E-2
1.718890559E1,1.978439838E-1,6.204863787E-1,1.794416644E-2
1.719890559E1,3.126866519E-1,5.233588219E-1,-4.558581859E-2
1.720890559E1,4.116468132E-1,4.243986309E-1,-1.262200326E-1
1.721890559E1,4.904484451E-1,3.156646192E-1,-2.117411643E-1
1.722890559E1,5.741369724E-1,1.861611903E-1,-3.107013404E-1
1.723890559E1,6.694319248E-1,3.711006418E-2,-4.151592851E-1
1.724890559E1,7.696138620E-1,-1.101084575E-1,-5.098434091E-1
1.725890559E1,8.612436652E-1,-2.353358418E-1,-5.959753990E-1
1.726890559E1,9.412670135E-1,-3.269656301E-1,-6.650031805E-1
1.727890559E1,1.012127399E0,-3.868304193E-1,-7.150941491E-1
1.728890559E1,1.069548726E0,-3.807217777E-1,-7.407504916E-1
1.729890559E1,1.089096427E0,-2.817615867E-1,-7.438048124E-1
1.730890562E1,1.050001025E0,-1.113301888E-1,-7.144832611E-1
1.731890565E1,9.620364308E-1,6.887505949E-2,-6.619488597E-1
1.732890565E1,8.447502851E-1,2.637410760E-1,-5.727625489E-1
1.733890565E1,7.219663858E-1,3.871358633E-1,-4.579198658E-1
1.734890565E1,6.120105982E-1,3.889684379E-1,-3.412446082E-1
1.735890555E1,5.509241223E-1,2.796235681E-1,-2.703842223E-1
1.736890552E1,5.356524587E-1,1.879937798E-1,-2.453387529E-1
1.737890552E1,5.173265338E-1,1.110247597E-1,-2.435061634E-1
1.738890552E1,4.354705513E-1,1.145372353E-2,-2.459496260E-1
1.739890552E1,3.114649057E-1,-1.608102769E-1,-2.392300963E-1
1.740890552E1,2.289981097E-1,-3.721696436E-1,-2.300671190E-1
1.741890552E1,2.461023331E-1,-5.371032953E-1,-2.404518276E-1
1.742890552E1,3.847687542E-1,-6.733261943E-1,-3.357468247E-1
1.743890552E1,5.942955017E-1,-7.307475209E-1,-5.397757888E-1
1.744890552E1,7.720572948E-1,-6.501133442E-1,-7.376961708E-1
1.745890552E1,8.545241356E-1,-4.534147382E-1,-8.048913479E-1
1.746890552E1,8.795695901E-1,-1.974621862E-1,-7.859544754E-1
1.747890552E1,9.119454622E-1,-9.926560335E-3,-7.383069992E-1
1.748890552E1,9.418778419E-1,7.864890248E-2,-6.075818539E-1
1.749890552E1,8.966737986E-1,3.584251702E-1,-4.285983145E-1
1.750890552E1,7.946593165E-1,8.587238193E-1,-4.041637182E-1
1.751890552E1,5.668066144E-1,8.880453706E-1,-4.475351572E-1
1.752890552E1,3.627775908E-1,3.810271919E-1,-4.469242990E-1
1.753890552E1,2.784782052E-1,-4.033237696E-1,-3.986659348E-1
1.754890552E1,2.815325260E-1,-1.260978580E0,-2.990948856E-1
1.755890555E1,3.151301146E-1,-1.960419297E0,-1.830305010E-1
1.756890555E1,4.140902758E-1,-2.174833059E0,2.038762718E-2
1.757890555E1,5.521458387E-1,-1.778992295E0,1.150717437E-1
1.758890555E1,5.668066144E-1,-1.050230026E0,-8.040513843E-2
1.759890555E1,4.049273133E-1,-2.903137207E-1,-3.791182339E-1
1.760890552E1,1.227075532E-1,3.156646192E-1,-6.466771960E-1
1.761890548E1,-1.711186320E-1,7.463245988E-1,-9.075166583E-1
1.762890548E1,-3.653737605E-1,1.107956886E0,-1.019915938E0
1.763890548E1,-3.659846485E-1,1.440267563E0,-9.270643592E-1
1.764890548E1,-1.570687294E-1,1.691333175E0,-7.163158655E-1
1.765890548E1,1.990657151E-1,1.767080426E0,-5.141194463E-1
1.766890548E1,5.594761968E-1,1.464702129E0,-3.595705628E-1
1.767890548E1,7.415140271E-1,7.084509730E-1,-2.325105816E-1
1.768890548E1,7.335727811E-1,-2.493857294E-1,-8.590292186E-2
1.769890548E1,6.303365827E-1,-1.119868755E0,5.581781268E-2
1.770890548E1,5.478697419E-1,-1.719738364E0,1.230129898E-1
1.771890548E1,5.124396086E-1,-2.075872898E0,1.278999150E-1
1.772890548E1,5.124396086E-1,-2.208430529E0,1.065196246E-1
1.773890548E1,5.576435924E-1,-2.174222231E0,7.964155823E-2
1.774890548E1,6.321691871E-1,-2.032501459E0,5.154175684E-2
1.775890548E1,6.914231181E-1,-1.835802794E0,4.665483162E-2
1.776890548E1,6.737080216E-1,-1.575574160E0,4.298964143E-2
1.777890548E1,5.912411809E-1,-1.297019601E0,1.244637929E-2
1.778890548E1,4.935027659E-1,-1.051451802E0,-2.420553565E-2
1.779890552E1,4.049273133E-1,-8.608618379E-1,-5.658139288E-2
1.780890555E1,3.346777856E-1,-7.325801253E-1,-8.040513843E-2
1.781890555E1,2.845868468E-1,-6.635523438E-1,-9.445504099E-2
1.782890555E1,2.516001165E-1,-6.525567770E-1,-9.995282441E-2
1.783890555E1,2.253329158E-1,-6.776022911E-1,-9.812022746E-2
1.784890555E1,1.990657151E-1,-7.240280509E-1,-1.054506153E-1
1.785890552E1,1.764636934E-1,-7.661777139E-1,-1.225548387E-1
1.786890552E1,1.703550518E-1,-7.997753024E-1,-1.439351290E-1
1.787890552E1,1.807397604E-1,-8.126034737E-1,-1.659262776E-1
1.788890552E1,1.960113794E-1,-7.991644740E-1,-1.830305010E-1
1.789890552E1,2.057852298E-1,-7.765624523E-1,-2.013564557E-1
1.790890552E1,2.143373489E-1,-7.612907887E-1,-2.202932835E-1
1.791890552E1,2.222785950E-1,-7.386888266E-1,-2.459496260E-1
1.792890552E1,2.351067662E-1,-7.130324841E-1,-2.691625059E-1
1.793890552E1,2.528218627E-1,-6.867652535E-1,-2.948188484E-1
1.794890552E1,2.577087879E-1,-6.476698518E-1,-3.247512281E-1
1.795890552E1,2.259437889E-1,-5.768095255E-1,-3.522401750E-1
1.796890552E1,1.630246639E-1,-4.686863720E-1,-3.760639131E-1
1.797890552E1,9.766208380E-2,-3.495676219E-1,-3.925572634E-1
1.798890552E1,5.917757004E-2,-2.328923792E-1,-4.017202556E-1
1.799890552E1,5.490151420E-2,-1.437060535E-1,-3.980550766E-1
1.800890552E1,4.940372705E-2,-8.506298810E-2,-3.681226671E-1
1.801890552E1,1.275181212E-2,-3.619376570E-2,-3.204751909E-1
1.802890552E1,-6.543894112E-2,1.756237634E-2,-2.673299015E-1
1.803890552E1,-1.515709460E-1,8.720101416E-2,-2.209041417E-1
1.804890552E1,-2.034944892E-1,1.305724531E-1,-1.708131880E-1
1.805890555E1,-1.851685345E-1,1.140790880E-1,-9.812022746E-2
1.806890555E1,-8.071056753E-2,3.527746722E-2,-1.687515154E-2
1.807890555E1,7.811439037E-2,-7.773260027E-2,7.353290170E-2
1.808890555E1,2.125047445E-1,-1.699732542E-1,1.920407563E-1
1.809890552E1,2.827542424E-1,-2.335032374E-1,3.264311254E-1
1.810890548E1,3.255148232E-1,-3.324634135E-1,4.730387628E-1
1.811890548E1,3.914882541E-1,-5.407684445E-1,6.532440186E-1
1.812890548E1,5.038874745E-1,-9.298896194E-1,8.835402131E-1
1.813890548E1,6.113997698E-1,-1.639104128E0,1.141936183E0
1.814890548E1,5.356524587E-1,-2.815019846E0,1.325195789E0
1.815890548E1,1.111011133E-1,-4.475351334E0,1.393001795E0
1.816890548E1,-5.712353587E-1,-6.001903534E0,1.446758032E0
1.817890548E1,-1.102688074E0,-6.537632465E0,1.574428797E0
1.818890548E1,-1.332373500E0,-5.659208298E0,1.671556354E0
1.819890548E1,-1.595656395E0,-3.773467302E0,1.492572904E0
1.820890548E1,-2.080683470E0,-1.634217262E0,1.284267783E0
1.821890548E1,-2.510732412E0,-1.420261711E-2,1.218905210E0
1.822890548E1,-2.695824623E0,7.163922191E-1,1.126053691E0
1.823890548E1,-2.646344662E0,6.986771226E-1,1.001437187E0
1.824890548E1,-2.438039541E0,2.564106882E-1,9.317985773E-1
1.825890548E1,-2.166204453E0,-5.212207437E-1,9.715048075E-1
1.826890548E1,-1.852219820E0,-1.538922310E0,1.056415081E0
1.827890548E1,-1.474705100E0,-2.255467176E0,1.168814301E0
1.828890548E1,-1.018388748E0,-2.218815327E0,1.229900837E0
1.829890548E1,-5.339725614E-1,-1.782657504E0,1.199968457E0
1.830890551E1,-2.254856378E-1,-1.204779029E0,1.121166825E0
1.831890551E1,-2.273182273E-1,-7.050912380E-1,1.031369567E0
1.832890551E1,-4.215733707E-1,-3.025310040E-1,9.250790477E-1
1.833890551E1,-5.889504552E-1,-2.031126991E-2,7.998516560E-1
1.834890551E1,-6.763041615E-1,1.953241676E-1,6.630178690E-1
1.835890548E1,-6.927975416E-1,2.832887471E-1,5.713880658E-1
1.836890548E1,-6.940192580E-1,3.040581644E-1,5.292384028E-1
1.837890548E1,-6.934084296E-1,2.643519342E-1,5.438991189E-1
1.838890548E1,-7.074583173E-1,2.399173230E-1,5.707772374E-1
1.839890548E1,-7.221190929E-1,2.435825169E-1,5.738315582E-1
1.840890548E1,-7.190647721E-1,2.735149264E-1,5.475643277E-1
1.841890548E1,-6.787476540E-1,3.407101035E-1,5.072472095E-1
1.842890548E1,-5.773440003E-1,3.999640048E-1,4.479933083E-1
1.843890548E1,-4.282929003E-1,4.207334518E-1,3.887393773E-1
1.844890548E1,-2.645809948E-1,3.901901841E-1,3.325397670E-1
1.845890548E1,-1.240820065E-1,3.730859458E-1,2.726749778E-1
1.846890548E1,-8.017606102E-3,3.688098788E-1,2.012037337E-1
1.847890548E1,1.019381359E-1,3.297145069E-1,1.022435725E-1
1.848890548E1,2.106721550E-1,2.637410760E-1,-2.542726509E-2
1.849890548E1,3.065779805E-1,1.843285859E-1,-1.763109863E-1
1.850890548E1,3.872122169E-1,1.067487001E-1,-3.363576829E-1
1.851890548E1,4.617377818E-1,2.855795063E-2,-4.750240743E-1
1.852890548E1,5.380959511E-1,-5.207626149E-2,-5.868124366E-1
1.853890548E1,6.193410158E-1,-1.259909570E-1,-6.711118221E-1
1.854890548E1,7.048621178E-1,-2.066251636E-1,-7.328092456E-1
1.855890551E1,7.977136374E-1,-2.964223623E-1,-7.694611549E-1
1.856890551E1,8.985064030E-1,-3.880521357E-1,-7.957283258E-1
1.857890551E1,9.931905270E-1,-4.375322461E-1,-8.207738400E-1
1.858890551E1,1.079933405E0,-4.155410826E-1,-8.452084064E-1
1.859890551E1,1.147739410E0,-3.129157126E-1,-8.592583537E-1
1.860890548E1,1.167897940E0,-1.974621862E-1,-8.525388241E-1
1.861890548E1,1.109254956E0,-1.064432710E-1,-8.171086311E-1
1.862890548E1,9.754754305E-1,1.069014193E-3,-7.181484699E-1
1.863890548E1,8.313112259E-1,1.330159009E-1,-5.416083932E-1
1.864890548E1,7.311293483E-1,2.081523389E-1,-3.314707577E-1
1.865890548E1,6.914231181E-1,2.130392492E-1,-1.897500157E-1
1.866890548E1,6.920339465E-1,2.576324046E-1,-1.634828150E-1
1.867890548E1,7.128033638E-1,2.802344263E-1,-2.025781870E-1
1.868890548E1,7.189120650E-1,1.678352207E-1,-2.630538344E-1
1.869890548E1,6.932557225E-1,-9.911288321E-2,-3.052035570E-1
1.870890548E1,6.810383797E-1,-4.686863720E-1,-3.864486217E-1
1.871890548E1,6.963100433E-1,-7.942775488E-1,-5.067890882E-1
1.872890548E1,6.987534761E-1,-8.834638596E-1,-5.690973401E-1
1.873890548E1,6.993643641E-1,-5.920811296E-1,-5.605452061E-1
1.874890548E1,7.482335567E-1,-1.754710376E-1,-5.171737671E-1
1.875890548E1,8.258134723E-1,1.146899462E-1,-5.202280879E-1
1.876890548E1,8.032114506E-1,1.232420653E-1,-5.000695586E-1
1.877890548E1,6.785949469E-1,3.339905739E-1,-4.328743815E-1
1.878890548E1,5.552001595E-1,7.854200006E-1,-4.597524405E-1
1.879890548E1,4.006512463E-1,8.556694984E-1,-5.923101902E-1
1.880890551E1,2.717586756E-1,5.514585972E-1,-6.405685544E-1
1.881890551E1,2.442697436E-1,9.269879758E-2,-6.094144583E-1
1.882890551E1,3.041345477E-1,-4.692972302E-1,-5.245041847E-1
1.883890551E1,3.786600828E-1,-1.086271167E0,-4.059963226E-1
1.884890551E1,4.293619096E-1,-1.478446603E0,-1.689805984E-1
1.885890548E1,4.782311320E-1,-1.461953282E0,4.298964143E-2
1.886890548E1,4.910593033E-1,-1.158353209E0,-5.780312419E-2
1.887890548E1,4.037055671E-1,-7.429648638E-1,-3.766747713E-1
1.888890548E1,2.051743716E-1,-3.287982047E-1,-7.169266939E-1
1.889890548E1,-4.352414981E-3,7.742717117E-2,-1.033965826E0
1.890890548E1,-1.387427747E-1,5.703954101E-1,-1.209895015E0
1.891890548E1,-9.903652966E-2,1.224632144E0,-1.073672056E0
1.892890548E1,2.118938863E-1,1.924683690E0,-7.077637315E-1
1.893890548E1,7.183011770E-1,2.196518660E0,-4.408156276E-1
1.894890548E1,1.186223984E0,1.654681206E0,-3.052035570E-1
1.895890548E1,1.388420343E0,3.712533414E-1,-1.653154045E-1
1.896890548E1,1.257695198E0,-1.131475091E0,3.077233583E-2
1.897890548E1,9.754754305E-1,-2.249969482E0,2.195297033E-1
1.898890548E1,7.635052204E-1,-2.815630674E0,2.958878577E-1
1.899890548E1,7.085273266E-1,-3.044705153E0,3.062725663E-1
1.900890548E1,7.977136374E-1,-3.045315981E0,2.800053656E-1
1.901890548E1,9.296605587E-1,-2.853504181E0,2.164753675E-1
1.902890548E1,9.846383929E-1,-2.512641430E0,1.456149966E-1
1.903890548E1,9.040042162E-1,-2.081981421E0,7.780896127E-2
1.904890548E1,7.219663858E-1,-1.645823717E0,1.450804994E-3
1.905890551E1,5.124396086E-1,-1.286634922E0,-8.345946670E-2
1.906890551E1,3.218496144E-1,-9.561568499E-1,-1.561524272E-1
1.907890551E1,1.856266707E-1,-6.580545902E-1,-1.983021349E-1
1.908890551E1,1.019381359E-1,-4.247040749E-1,-2.135737687E-1
1.909890551E1,5.917757004E-2,-2.835941911E-1,-2.166280895E-1
1.910890548E1,3.718642145E-2,-2.316706479E-1,-2.257910669E-1
1.911890548E1,2.374738641E-2,-2.298380435E-1,-2.245693356E-1
1.912890548E1,1.947133057E-2,-2.671008408E-1,-2.074651122E-1
1.913890548E1,4.390593991E-2,-3.568980098E-1,-1.854739636E-1
1.914890548E1,8.666650951E-2,-4.631885588E-1,-1.714240611E-1
1.915890548E1,1.282053441E-1,-5.694791079E-1,-1.659262776E-1
1.916890548E1,1.642463952E-1,-6.733261943E-1,-1.665371358E-1
1.917890548E1,1.990657151E-1,-7.661777139E-1,-1.634828150E-1
1.918890548E1,2.308306992E-1,-8.413141370E-1,-1.555415690E-1
1.919890548E1,2.552653253E-1,-9.054549932E-1,-1.579850167E-1
1.920890548E1,2.711478174E-1,-9.555459619E-1,-1.720349193E-1
1.921890548E1,2.906954885E-1,-9.854783416E-1,-2.031890452E-1
1.922890548E1,3.236822188E-1,-9.873109460E-1,-2.361757755E-1
1.923890548E1,3.591124117E-1,-9.463829994E-1,-2.789363563E-1
1.924890548E1,3.701079786E-1,-8.468119502E-1,-3.394120038E-1
1.925890548E1,3.420081735E-1,-6.983717084E-1,-4.108832479E-1
1.926890548E1,2.790890634E-1,-5.169447064E-1,-4.585307240E-1
1.927890548E1,2.155590802E-1,-3.080287874E-1,-4.634176493E-1
1.928890548E1,1.899027377E-1,-1.094975919E-1,-4.450916946E-1
1.929890548E1,2.296089679E-1,4.382958263E-2,-4.176027477E-1
1.930890551E1,3.169626892E-1,1.287398487E-1,-3.675118089E-1
1.931890614E1,3.798818290E-1,1.342376322E-1,-2.997057736E-1
1.932890614E1,3.682753742E-1,8.597928286E-2,-2.215150148E-1
1.933890614E1,2.943606973E-1,1.084285788E-2,-1.530981064E-1
1.934890614E1,2.051743716E-1,-7.345654815E-2,-1.048397496E-1
1.935890611E1,1.520290822E-1,-1.681406647E-1,-6.757696718E-2
1.936890611E1,1.563051492E-1,-2.725986242E-1,3.283400787E-3
1.937890611E1,1.886810064E-1,-3.623957932E-1,1.401172131E-1
1.938890611E1,2.051743716E-1,-4.259257913E-1,3.172681332E-1
1.939890611E1,2.057852298E-1,-4.790710807E-1,4.724279046E-1
1.940890611E1,2.070069611E-1,-5.572618246E-1,6.068182588E-1
1.941890611E1,2.430480123E-1,-7.179193497E-1,7.363216877E-1
1.942890611E1,3.102431893E-1,-1.008691192E0,8.725446463E-1
1.943890611E1,3.395647109E-1,-1.482111812E0,1.005102396E0
1.944890611E1,2.283872366E-1,-2.292119026E0,1.080238819E0
1.945890611E1,-8.620835841E-2,-3.471699953E0,1.102229953E0
1.946890611E1,-5.547419786E-1,-4.699539185E0,1.132162333E0
1.947890611E1,-9.915106297E-1,-5.373934269E0,1.229289889E0
1.948890611E1,-1.317101836E0,-5.122868538E0,1.312978506E0
1.949890611E1,-1.617647529E0,-4.041636944E0,1.265331030E0
1.950890611E1,-1.967062473E0,-2.570673704E0,1.182864189E0
1.951890611E1,-2.223015070E0,-1.161407590E0,1.155375242E0
1.952890611E1,-2.358627081E0,-2.371684313E-1,1.102840900E0
1.953890611E1,-2.398333311E0,1.348485053E-1,1.027704358E0
1.954890611E1,-2.349464178E0,1.507309973E-1,9.690613747E-1
1.955890614E1,-2.253558159E0,-1.467603743E-1,9.226356149E-1
1.956890614E1,-2.056248665E0,-6.232352853E-1,9.171378016E-1
1.957890614E1,-1.711720824E0,-1.202946424E0,9.354637861E-1
1.958890614E1,-1.243187189E0,-1.522428870E0,9.403507113E-1
1.959890614E1,-7.380015850E-1,-1.421025276E0,9.305768609E-1
1.960890611E1,-3.256675303E-1,-1.082605958E0,9.330202937E-1
1.961890547E1,-1.906663179E-1,-7.710646391E-1,9.537897110E-1
1.962890547E1,-2.890156209E-1,-5.059491396E-1,9.708939195E-1
1.963890547E1,-4.460079968E-1,-2.066251636E-1,9.250790477E-1
1.964890547E1,-5.284748077E-1,9.330966324E-2,8.016842604E-1
1.965890547E1,-5.290856361E-1,2.808452845E-1,7.033349872E-1
1.966890547E1,-5.064836740E-1,3.462078869E-1,6.715700030E-1
1.967890547E1,-4.631122053E-1,2.924517393E-1,6.862307191E-1
1.968890547E1,-4.179081917E-1,1.751656085E-1,7.143305540E-1
1.969890547E1,-3.617085814E-1,1.024726480E-1,7.265478373E-1
1.970890547E1,-3.446043432E-1,2.044871449E-1,7.082219124E-1
1.971890547E1,-3.519347310E-1,4.219551682E-1,6.483570933E-1
1.972890547E1,-3.672063649E-1,6.693555713E-1,5.536729693E-1
1.973890547E1,-3.494912684E-1,8.752171993E-1,4.400520623E-1
1.974890547E1,-2.908482254E-1,1.016327024E0,3.233767748E-1
1.975890547E1,-1.918880492E-1,1.061531067E0,2.042580694E-1
1.976890547E1,-6.543894112E-2,1.024268270E0,8.330674469E-2
1.977890547E1,6.101016700E-2,9.314168096E-1,-3.703370690E-2
1.978890547E1,1.862375438E-1,8.477282524E-1,-1.512655020E-1
1.979890547E1,3.090214431E-1,7.451028824E-1,-2.453387529E-1
1.980890551E1,4.318053722E-1,6.082690954E-1,-3.284164369E-1
1.981890551E1,5.521458387E-1,4.396702647E-1,-4.212679565E-1
1.982890551E1,6.651558876E-1,2.454151064E-1,-5.141194463E-1
1.983890551E1,7.775551081E-1,2.489275858E-2,-5.984188914E-1
1.984890551E1,8.826239109E-1,-1.681406647E-1,-6.711118221E-1
1.985890547E1,9.840275645E-1,-3.031418920E-1,-7.334200740E-1
1.986890547E1,1.077489972E0,-3.202461004E-1,-7.657959461E-1
1.987890547E1,1.145906806E0,-2.182316035E-1,-7.486917377E-1
1.988890547E1,1.163621902E0,-3.313944116E-2,-6.955464482E-1
1.989890547E1,1.079322577E0,1.354593635E-1,-6.326273084E-1
1.990890547E1,9.058368206E-1,2.270891517E-1,-5.324454308E-1
1.991890551E1,7.060838938E-1,1.824959964E-1,-3.388011456E-1
1.992890551E1,5.307655334E-1,2.916881628E-2,-1.091158018E-1
1.993890551E1,4.489096105E-1,-1.461495161E-1,3.443752974E-2
1.994890551E1,4.336379766E-1,-9.056077152E-2,-1.259909570E-2
1.995890551E1,4.073707461E-1,1.079704314E-1,-1.311069578E-1
1.996890551E1,3.737731576E-1,1.537853181E-1,-2.202932835E-1
1.997890551E1,3.206278980E-1,5.665775016E-2,-2.520582676E-1
1.998890551E1,2.729803920E-1,-1.351539344E-1,-2.306779921E-1
1.999890551E1,3.023019433E-1,-3.049744666E-1,-2.526691258E-1
2.000890551E1,3.743840456E-1,-3.990477324E-1,-3.846160173E-1
2.001890551E1,4.360814393E-1,-3.446807265E-1,-5.098434091E-1
2.002890551E1,4.910593033E-1,-1.498146951E-1,-4.774675369E-1
2.003890551E1,5.887977481E-1,7.254024595E-2,-3.565162420E-1
2.004890551E1,7.580074072E-1,2.399173230E-1,-3.015383482E-1
2.005890554E1,8.930086493E-1,3.376557529E-1,-2.972623110E-1
2.006890554E1,9.033933282E-1,5.203045011E-1,-2.935971022E-1
2.007890554E1,7.573965192E-1,7.212791443E-1,-3.339142203E-1
2.008890554E1,5.167156458E-1,7.328855991E-1,-4.304309189E-1
2.009890554E1,3.273474276E-1,5.196936131E-1,-5.257259011E-1
2.010890554E1,2.522109747E-1,1.366810948E-1,-5.544365644E-1
2.011890554E1,2.705369592E-1,-3.758348525E-1,-4.988478422E-1
2.012890554E1,3.273474276E-1,-9.347765446E-1,-3.345250785E-1
2.013890554E1,3.969860375E-1,-1.369712591E0,-1.268308908E-1
2.014890554E1,4.318053722E-1,-1.391703725E0,-1.427133977E-1
2.015890554E1,3.426190317E-1,-1.009302139E0,-3.864486217E-1
2.016890554E1,1.306488067E-1,-4.014911950E-1,-6.588945389E-1
2.017890554E1,-1.448514163E-1,3.174972236E-1,-9.166796803E-1
2.018890554E1,-3.641520441E-1,1.106735110E0,-1.102382660E0
2.019890554E1,-4.240168333E-1,1.913077235E0,-1.138423800E0
2.020890554E1,-2.425898612E-1,2.571589947E0,-9.667705894E-1
2.021890554E1,2.375502288E-1,2.855642319E0,-7.236462235E-1
